TimeUS,time_s,instance,acc_x_mps2,acc_y_mps2,acc_z_mps2,gyr_x_rads,gyr_y_rads,gyr_z_rads,acc_rate_reported_hz,gyr_rate_reported_hz,roll_deg,pitch_deg,yaw_deg,acc_body_norm_mps2,acc_nav_x_mps2,acc_nav_y_mps2,acc_nav_z_mps2,acc_lin_x_mps2,acc_lin_y_mps2,acc_lin_z_mps2,acc_lin_norm_mps2,vel_est_x_mps,vel_est_y_mps,vel_est_z_mps,vel_est_norm_mps
50654626,0.0,0,9.21786117553711,-0.06557302922010422,-3.355518341064453,0.0007239187834784389,0.000728022656403482,0.000745333731174469,999,999,1.5106618404388428,70.11924743652344,359.9036865234375,9.809830162181985,-0.021368342883952618,0.022947137564364797,-9.809780050218018,-0.021368342883952618,0.022947137564364797,-19.616430050218018,19.616455110246,0.0,0.0,0.0,0.0
50674626,0.02,0,9.216883659362793,-0.06451737880706787,-3.3564934730529785,0.000728087208699435,0.000717439572326839,0.0007684395532123744,999,999,1.5108692646026611,70.11965942382812,359.90338134765625,9.809238263853327,-0.022659771019857722,0.024042575003105346,-9.809182626825171,-0.022659771019857722,0.024042575003105346,-19.61583262682517,19.615860448990105,-0.0004402811390381034,0.00046989712567470143,-0.3923226267704319,0.3923231552264558
50694626,0.04,0,9.217256546020508,-0.06518033146858215,-3.3569157123565674,0.0007402232149615884,0.0007446508971042931,0.0007371301762759686,999,999,1.5109142065048218,70.11963653564453,359.9029235839844,9.809737499578398,-0.02294331536706773,0.02339428022016371,-9.809682773798936,-0.02294331536706773,0.02339428022016371,-19.616332773798938,19.61636014097634,-0.000896312002907358,0.000944265677907392,-0.784644280776673,0.7846453608914155
50714626,0.06,0,9.216874122619629,-0.06535611301660538,-3.3573074340820312,0.000754664943087846,0.0007857948658056557,0.0007146159186959267,999,999,1.5109033584594727,70.11966705322266,359.9023742675781,9.809513403868026,-0.02345125561710404,0.023229338283682927,-9.809457867645865,-0.02345125561710404,0.023229338283682927,-19.616107867645866,19.616135639790656,-0.0013602577127490756,0.0014105018629458582,-1.176968687191121,1.1769703184213869
50734626,0.08,0,9.216728210449219,-0.06521844863891602,-3.356287956237793,0.0007353909313678741,0.0007640355033800006,0.000706752180121839,999,999,1.5109225511550903,70.11963653564453,359.9018859863281,9.809026516251253,-0.022533451806377336,0.023339827197275273,-9.80897286633704,-0.022533451806377336,0.023339827197275273,-19.61562286633704,19.615649694525757,-0.0018201047869838894,0.0018761935177554403,-1.56928599453095,1.569288171597092
50754626,0.1,0,9.216693878173828,-0.0647260993719101,-3.356046438217163,0.0007937290938571095,0.0007129483856260777,0.0007254885276779532,999,999,1.5110228061676025,70.11961364746094,359.90142822265625,9.808908359617647,-0.022300883111582515,0.023831291306053146,-9.80885405883603,-0.022300883111582515,0.023831291306053146,-19.61550405883603,19.615531212333906,-0.0022684481361634878,0.0023479047027887244,-1.9615972637826808,1.9615999805753312
50774626,0.12,0,9.217207908630371,-0.06521918624639511,-3.355207681655884,0.0007192968623712659,0.000770572223700583,0.000761066097766161,999,999,1.5111619234085083,70.11961364746094,359.9010925292969,9.809107694393795,-0.021350497984667705,0.02332289599617278,-9.809056731356675,-0.021350497984667705,0.02332289599617278,-19.615706731356674,19.615732216051313,-0.0027049619471259897,0.0028194465758109833,-2.353909371684608,2.353912614393906
50794626,0.14,0,9.21755599975586,-0.06528064608573914,-3.355344772338867,0.000745621626265347,0.00079521001316607,0.0008144750026986003,999,999,1.5114789009094238,70.11961364746094,359.9009094238281,9.809482081774265,-0.021362399458332515,0.02328372757579937,-9.809431187819706,-0.021362399458332515,0.02328372757579937,-19.616081187819706,19.616106638454397,-0.0031320909215559922,0.003285512811530705,-2.746227250876372,2.7462310023091594
50814626,0.16,0,9.217427253723145,-0.06470869481563568,-3.3559470176696777,0.0007567790453322232,0.0007598015363328159,0.0007548654684796929,999,999,1.5115875005722046,70.11962127685547,359.9004821777344,9.809563332700847,-0.021958207822860842,0.02387892271985012,-9.809509692763847,-0.021958207822860842,0.02387892271985012,-19.616159692763844,19.616186516697223,-0.0035652969943679256,0.0037571393144872,-3.138549659682207,3.1385539335384665
50834626,0.18,0,9.216730117797852,-0.06485696882009506,-3.3557145595550537,0.0006891147349961102,0.000766664044931531,0.0007403554045595229,999,999,1.5115981101989746,70.11959838867188,359.9000549316406,9.808829731213418,-0.02197659136166985,0.023725385643937266,-9.808776418669376,-0.02197659136166985,0.023725385643937266,-19.615426418669376,19.615453077885412,-0.0040046449862132325,0.004233182398125073,-3.5308655207965387,3.530870329389695
50854626,0.2,0,9.216506004333496,-0.06369803100824356,-3.3561789989471436,0.0007024012738838792,0.0007420319016091526,0.0007275491952896118,999,999,1.511635184288025,70.11959075927734,359.8996276855469,9.808770455059266,-0.022457108086478605,0.024899351505408132,-9.808713143967182,-0.022457108086478605,0.024899351505408132,-19.61536314396718,19.61539180259,-0.0044489819806947176,0.004719429769618528,-3.9231734164229044,3.923178777698689
50874626,0.22,0,9.216675758361816,-0.06561136245727539,-3.355642318725586,0.0007633708883076906,0.000760561553761363,0.0007440439658239484,999,999,1.5117921829223633,70.11959838867188,359.8992614746094,9.808758955998455,-0.02194678687762286,0.02298096839725819,-9.808707482156716,-0.02194678687762286,0.02298096839725819,-19.615357482156718,19.615383221827816,-0.004893020930335732,0.005198232968645191,-4.315480622684143,4.31548652738508
50894626,0.24,0,9.216497421264648,-0.06506048887968063,-3.356266498565674,0.0007325292681343853,0.0007962716626934707,0.0007419706089422107,999,999,1.5118948221206665,70.11963653564453,359.89886474609375,9.80880127195905,-0.02258586075604896,0.023555412334194503,-9.808746984922648,-0.02258586075604896,0.023555412334194503,-19.615396984922647,19.615424131398964,-0.005338347406672449,0.005663596775959717,-4.707788167354937,4.707794600762509
50914626,0.26,0,9.217157363891602,-0.06517811119556427,-3.355510950088501,0.0007709129713475704,0.0007950183353386819,0.000697386683896184,999,999,1.5118353366851807,70.11964416503906,359.89825439453125,9.80916366430309,-0.02165541682824834,0.0234130004330549,-9.80911181847861,-0.02165541682824834,0.0234130004330549,-19.61576181847861,19.615787744695613,-0.005780760182515423,0.006133280903632212,-5.10009975538895,5.100106719397287
50934626,0.28,0,9.216165542602539,-0.06529983133077621,-3.356123685836792,0.0007913026493042707,0.0007347926730290055,0.0007321416051127017,999,999,1.5119043588638306,70.11959075927734,359.89776611328125,9.808442158225786,-0.022562543050151707,0.023313335764730075,-9.808388501241552,-0.022562543050151707,0.023313335764730075,-19.61503850124155,19.61506533216654,-0.006222939781299424,0.0066005442656100624,-5.492407758586152,5.492415250028122
50954626,0.3,0,9.216796875,-0.06515169143676758,-3.356144905090332,0.0007566179847344756,0.000714785885065794,0.00066939159296453,999,999,1.5116912126541138,70.11951446533203,359.89703369140625,9.809041645434615,-0.02235060353888585,0.02344940499208538,-9.808988152597472,-0.02235060353888585,0.02344940499208538,-19.61563815259747,19.61566490225887,-0.006672071247189799,0.007068171673178216,-5.884714525124542,5.884722552321162
50974626,0.32,0,9.216931343078613,-0.0657154768705368,-3.3558483123779297,0.0007663175347261131,0.000746175937820226,0.0007225343724712729,999,999,1.5117548704147339,70.11949920654297,359.8965148925781,9.80907028227523,-0.022038220666163344,0.02288135811040315,-9.809018837931546,-0.022038220666163344,0.02288135811040315,-19.615668837931544,19.615694563260252,-0.007115959489240291,0.007531479304203102,-6.277027595029832,6.27703614684717
50994626,0.34,0,9.217570304870605,-0.06627276539802551,-3.355900764465332,0.0006935629644431174,0.0007391287945210934,0.0007683872245252132,999,999,1.5118454694747925,70.11944580078125,359.89617919921875,9.809692367531456,-0.02187575757421234,0.022330788865497372,-9.80964255886544,-0.02187575757421234,0.022330788865497372,-19.61629255886544,19.616317467045143,-0.007555099271644048,0.007983600773962107,-6.669347208997802,6.669356266655208
51014626,0.36,0,9.217382431030273,-0.06533394753932953,-3.3566408157348633,0.0007335769478231668,0.0006978897145017982,0.0007567856227979064,999,999,1.5118634700775146,70.11936950683594,359.89569091796875,9.809762737723265,-0.022597050577967792,0.023291361379220665,-9.809709060732336,-0.022597050577967792,0.023291361379220665,-19.616359060732336,19.616385903468185,-0.007999827353165848,0.008439822276409286,-7.06167372519378,7.061683299959715
51034626,0.38,0,9.216208457946777,-0.0655989795923233,-3.3565709590911865,0.000759476562961936,0.000761358707677573,0.0006694075418636203,999,999,1.5116933584213257,70.11936950683594,359.8949890136719,9.808637528722713,-0.02293746459809176,0.02301551192775629,-9.808583706570287,-0.02293746459809176,0.02301551192775629,-19.615233706570287,19.61526062035482,-0.008455172504926445,0.008902891009479056,-7.453989652866806,7.453999764988984
51054626,0.4,0,9.216991424560547,-0.06535663455724716,-3.35530424118042,0.0007467587711289525,0.0007500818464905024,0.0007751516532152891,999,999,1.511899709701538,70.11931610107422,359.8946533203125,9.808938217818818,-0.02146462445566044,0.023233868514316997,-9.80888721610344,-0.02146462445566044,0.023233868514316997,-19.61553721610344,19.61556271991931,-0.008899193395463967,0.009365384813899789,-7.8462973620935434,7.846307998063287
51074626,0.42,0,9.215912818908691,-0.06498133391141891,-3.3558812141418457,0.0006968702655285597,0.0007387781515717506,0.0007739835418760777,999,999,1.5119315385818481,70.11927032470703,359.8942565917969,9.80811961503899,-0.022355769136412906,0.02362792050737729,-9.808065676975833,-0.022355769136412906,0.02362792050737729,-19.614715676975834,19.6147426480095,-0.0093373973313847,0.009834002704116732,-8.238599891024336,8.238611051565933
51094626,0.44,0,9.217734336853027,-0.0644969493150711,-3.3555660247802734,0.0006497567519545555,0.0007065907120704651,0.0006777679082006216,999,999,1.5116652250289917,70.11923217773438,359.8935852050781,9.8097201544147,-0.021420461010485337,0.02408674697390195,-9.809667196210086,-0.021420461010485337,0.02408674697390195,-19.616317196210083,19.616343679438764,-0.009775159632853683,0.010311149378929525,-8.630910219756196,8.630921914548834
51114626,0.46,0,9.216148376464844,-0.06390640139579773,-3.3560709953308105,0.0007548531866632402,0.0007563507533632219,0.0007591436733491719,999,999,1.5117850303649902,70.11920928955078,359.8931884765625,9.808398821971691,-0.022414575034574113,0.024699432283143363,-9.808342111474628,-0.022414575034574113,0.024699432283143363,-19.614992111474628,19.615020469230743,-0.010213509993304278,0.010799011171499978,-9.023223312833043,9.023235555369391
51134626,0.48,0,9.216608047485352,-0.06461359560489655,-3.3557794094085693,0.0007362061878666282,0.0007159895030781627,0.0008091116906143725,999,999,1.5120830535888672,70.1191177368164,359.8929748535156,9.808735609767412,-0.021987110923816555,0.024001533329936903,-9.808681601299448,-0.021987110923816555,0.024001533329936903,-19.615331601299445,19.615358608386074,-0.010657526852888184,0.01128602082763078,-9.415526549960783,9.415539345686
51154626,0.5,0,9.216873168945312,-0.06417220830917358,-3.356111526489258,0.0007005489314906299,0.0007239761180244386,0.0007845530635677278,999,999,1.5122278928756714,70.11905670166016,359.8926696777344,9.809095455900984,-0.022186719496708918,0.024460508144798485,-9.809039866164099,-0.022186719496708918,0.024460508144798485,-19.615689866164097,19.615717664477984,-0.01109926515709344,0.011770641242378135,-9.807836764635418,9.807850108123413
51174626,0.52,0,9.217245101928711,-0.06590612232685089,-3.355530261993408,0.0007126086857169867,0.0007357729482464492,0.000771241495385766,999,999,1.512388825416565,70.11902618408203,359.8923645019531,9.809257577673375,-0.021554690824915568,0.022720212930411418,-9.809207583305104,-0.021554690824915568,0.022720212930411418,-19.615857583305104,19.615882583796235,-0.011536679260309685,0.012242448453130234,-10.20015223913011,10.20016611011524
51194626,0.54,0,9.21662425994873,-0.06449652463197708,-3.3556833267211914,0.000731653708498925,0.0007679529371671379,0.0007349735824391246,999,999,1.51239013671875,70.11898803710938,359.8918762207031,9.808717201550857,-0.02186533248591882,0.02413420903472896,-9.80866313965309,-0.02186533248591882,0.02413420903472896,-19.61531313965309,19.615340173432056,-0.011970879493418029,0.012710992672781639,-10.592463946359693,10.592478337302396
51214626,0.56,0,9.218116760253906,-0.06441203504800797,-3.355701446533203,0.000772065541241318,0.0007140554953366518,0.000675099203363061,999,999,1.5122801065444946,70.1189193725586,359.89117431640625,9.810125264959568,-0.021360561137250045,0.02421201196955848,-9.810072131187532,-0.021360561137250045,0.02421201196955848,-19.61672213118753,19.616748702762095,-0.012403138429649718,0.013194454882824513,-10.9847842990681,10.984799225681623
51234626,0.58,0,9.217574119567871,-0.06432977318763733,-3.356215715408325,0.0007537174387834966,0.0006930408999323845,0.0007304028840735555,999,999,1.512369990348816,70.11878967285156,359.8907775878906,9.809790767279372,-0.02200390161454191,0.024314458109155765,-9.809735956346643,-0.02200390161454191,0.024314458109155765,-19.61638595634664,19.616413366181728,-0.012836783057167636,0.013679719583611654,-11.37711537994344,11.377130845967832
51254626,0.6,0,9.217618942260742,-0.06508971750736237,-3.356314182281494,0.000703250989317894,0.0007216160302050412,0.0007317448616959155,999,999,1.5124101638793945,70.11873626708984,359.8903503417969,9.809871585613806,-0.022092189887707114,0.023560063034527748,-9.809818417524808,-0.022092189887707114,0.023560063034527748,-19.616468417524807,19.616495005917148,-0.013277743972190127,0.01415846479504849,-11.769443923682156,11.769459929551108
51274626,0.62,0,9.217401504516602,-0.06556524336338043,-3.355093479156494,0.000724326353520155,0.0007433533319272101,0.0007879508775658906,999,999,1.5125572681427002,70.11868286132812,359.8900146484375,9.809252853835538,-0.021022011533333718,0.023059174191151263,-9.80920322452325,-0.021022011533333718,0.023059174191151263,-19.61585322452325,19.615878042456384,-0.013708885986400535,0.01462465716730528,-12.161767140102636,12.161783659654224
51294626,0.64,0,9.2178316116333,-0.06475218385457993,-3.3547894954681396,0.00072933838237077,0.0007499202038161457,0.0007407931261695921,999,999,1.5126019716262817,70.11865997314453,359.8895568847656,9.809547646280306,-0.020564119167490347,0.023865831517711156,-9.809497059672953,-0.020564119167490347,0.023865831517711156,-19.616147059672954,19.61617235669658,-0.014124747293408776,0.015093907224393905,-12.5540871429446,12.554104162670003
51314626,0.66,0,9.21750545501709,-0.06556724011898041,-3.3565876483917236,0.0007382493349723518,0.0007122635142877698,0.0007489281706511974,999,999,1.5127495527267456,70.11857604980469,359.8891906738281,9.809861697168952,-0.02237254740578365,0.023110799839737045,-9.809808962341512,-0.02237254740578365,0.023110799839737045,-19.61645896234151,19.6164853340545,-0.014554113959141517,0.015563673537968387,-12.946413203164743,12.946430738904276
51334626,0.68,0,9.216816902160645,-0.06481839716434479,-3.355985164642334,0.0007729384233243763,0.000781453971285373,0.0008125588065013289,999,999,1.5130375623703003,70.11859130859375,359.8889465332031,9.809003601684756,-0.022022687853665346,0.023859767720433925,-9.808949860742919,-0.022022687853665346,0.023859767720433925,-19.61559986074292,19.615626734419514,-0.014998066311736008,0.016033379213570096,-13.338733791395589,13.338751859486727
51354626,0.7,0,9.216422080993652,-0.06443014740943909,-3.3555760383605957,0.000703122466802597,0.0007541254162788391,0.0007415043073706329,999,999,1.5130460262298584,70.11854553222656,359.8885192871094,9.808490086050062,-0.021753956015644338,0.02423721754631096,-9.808436016553589,-0.021753956015644338,0.02423721754631096,-19.61508601655359,19.615113053819314,-0.015435832750429103,0.016514349066237544,-13.731040650168552,13.73105925721825
51374626,0.72,0,9.215941429138184,-0.06475390493869781,-3.3371877670288086,0.0007389629608951509,0.0006775023648515344,0.0007352656102739275,999,999,1.5131292343139648,70.11833190917969,359.8880920410156,9.80176472304437,-0.004604029867946835,0.02339955022263783,-9.80173571108074,-0.004604029867946835,0.02339955022263783,-19.60838571108074,19.60840021344314,-0.015699412609265013,0.016990716743927034,-14.123275367444895,14.123294313321079
51394626,0.74,0,9.217159271240234,-0.06506305932998657,-3.373434066772461,0.000747290498111397,0.0006104889907874167,0.0007476070895791054,999,999,1.5130958557128906,70.1181869506836,359.8875427246094,9.815310266922802,-0.03824519328430043,0.024111733585458817,-9.8152061397331,-0.03824519328430043,0.024111733585458817,-19.621856139733097,19.62190822623751,-0.016127904840787487,0.017465829582008,-14.515577785953035,14.51559725345708
51414626,0.76,0,9.21731948852539,-0.06555881351232529,-3.356576442718506,0.0007478878833353519,0.000876900739967823,0.0007585802813991904,999,999,1.5132827758789062,70.11831665039062,359.88720703125,9.809683069671106,-0.022379554967857818,0.023150960877540122,-9.80963022320015,-0.022379554967857818,0.023150960877540122,-19.61628022320015,19.616306650503386,-0.01673415232330907,0.01793845652663799,-14.907959149582368,14.907979334091296
51434626,0.78,0,9.216772079467773,-0.06589148193597794,-3.355490207672119,0.0007578590884804726,0.0007987204589881003,0.0007313875248655677,999,999,1.5132942199707031,70.11833190917969,359.8866882324219,9.808799303993935,-0.021555956188586745,0.02278896630336874,-9.80874914501332,-0.021555956188586745,0.02278896630336874,-19.61539914501332,19.61542422723561,-0.017173507434873517,0.018397855798447077,-15.300275943264502,15.30029664256527
51454626,0.8,0,9.21741008758545,-0.06517355144023895,-3.355679512023926,0.0007608362939208746,0.0007845572545193136,0.0007612195331603289,999,999,1.5134741067886353,70.11833953857422,359.8863525390625,9.809458767024125,-0.021498761818067536,0.023522197555470095,-9.80940700610434,-0.021498761818067536,0.023522197555470095,-19.61605700610434,19.616082890252905,-0.01760405461494006,0.018860967437035466,-15.69259050477568,15.692611713459534
51474626,0.82,0,9.218128204345703,-0.06546923518180847,-3.35479736328125,0.0007138059590943158,0.0008051297045312822,0.0007637753151357174,999,999,1.513569712638855,70.11841583251953,359.885986328125,9.809833798856525,-0.020446110496715963,0.023206958894999796,-9.809785041213301,-0.020446110496715963,0.023206958894999796,-19.6164350412133,19.616459423976504,-0.018023503338087894,0.019328259001540164,-16.084915425248855,16.084937135894474
51494626,0.84,0,9.216316223144531,-0.06490789353847504,-3.3556694984436035,0.0007363256881944835,0.0008024355047382414,0.0007844829233363271,999,999,1.5138096809387207,70.11844635009766,359.8857421875,9.808425742310813,-0.02187208433261123,0.02380812977292042,-9.80837246067405,-0.02187208433261123,0.02380812977292042,-19.615022460674048,19.615049103886122,-0.018446685286381166,0.019798409888219366,-16.477230000267728,16.477252220529824
51514626,0.86,0,9.216562271118164,-0.06437841802835464,-3.3562662601470947,0.0007658160757273436,0.0007380649913102388,0.000746665638871491,999,999,1.513890027999878,70.11842346191406,359.8852844238281,9.8088576239595,-0.022331010363195514,0.02435898805312428,-9.808801958077531,-0.022331010363195514,0.02435898805312428,-19.61545195807753,19.615479794131225,-0.018888716233339233,0.020280081066479813,-16.869534744455244,16.869557509302716
51534626,0.88,0,9.216719627380371,-0.06439921259880066,-3.35514497756958,0.0007050306303426623,0.0007409356767311692,0.0007870273548178375,999,999,1.5140321254730225,70.11836242675781,359.8849792480469,9.808622011721743,-0.021213382096914923,0.02431477504135321,-9.808568935016309,-0.021213382096914923,0.02431477504135321,-19.61521893501631,19.615245476019098,-0.019324160157940338,0.02076681869742459,-17.261841453386182,17.26186476154202
51554626,0.9,0,9.217546463012695,-0.06399394571781158,-3.355713367462158,0.0007665201555937529,0.0007812983240000904,0.0007398234447464347,999,999,1.5141278505325317,70.11840057373047,359.884521484375,9.80959072680663,-0.021461888756785008,0.024741197221370193,-9.80953604855712,-0.021461888756785008,0.024741197221370193,-19.61618604855712,19.616213391761313,-0.019750912866477337,0.021257378420051824,-17.65415550322192,17.654179349565844
51574626,0.92,0,9.216851234436035,-0.06445550173521042,-3.356198787689209,0.0007144052651710808,0.0007495988393202424,0.0007768897921778262,999,999,1.5143895149230957,70.11840057373047,359.8843078613281,9.80910655931087,-0.022166794852934046,0.02430946137743055,-9.809051390180858,-0.022166794852934046,0.02430946137743055,-19.61570139018086,19.615728978181,-0.02018719970257453,0.02174788500603983,-18.0464743776093,18.046498772760412
51594626,0.94,0,9.217487335205078,-0.06483282148838043,-3.357020139694214,0.0007141696405597031,0.0007746015908196568,0.0007878876058384776,999,999,1.514622449874878,70.11840057373047,359.8840637207031,9.809987782241153,-0.022732471727428205,0.023968868808675298,-9.809932161629757,-0.022732471727428205,0.023968868808675298,-19.616582161629758,19.616609976647688,-0.02063619236837815,0.022230668307900887,-18.438797213127405,18.438822162000584
51614626,0.96,0,9.21743106842041,-0.06455998122692108,-3.3567280769348145,0.000761469709686935,0.0007259814301505685,0.0007068203995004296,999,999,1.5146825313568115,70.11833953857422,359.8835754394531,9.80983317262533,-0.02245904256111908,0.02423705350114315,-9.809777522012677,-0.02245904256111908,0.02423705350114315,-19.61642752201268,19.616455351814498,-0.021088107511263623,0.022712727530999073,-18.83112730996383,18.831152814958937
51634626,0.98,0,9.216547012329102,-0.06502261757850647,-3.3562378883361816,0.000754857319407165,0.0006997467135079205,0.0007833584095351398,999,999,1.514976143836975,70.11827087402344,359.88336181640625,9.80883782791685,-0.02229935369109981,0.023778581331743126,-9.808783658143724,-0.02229935369109981,0.023778581331743126,-19.615433658143722,19.61546074603252,-0.021535691473785812,0.023192883879327938,-19.223445921765393,19.22347197576204
51654626,1.0,0,9.216889381408691,-0.06423290073871613,-3.355515956878662,0.0007664342992939055,0.0007982480456121266,0.0007594618946313858,999,999,1.515163779258728,70.11832427978516,359.88299560546875,9.808907333211428,-0.021491943566674276,0.024558421721674675,-9.808853044663948,-0.021491943566674276,0.024558421721674675,-19.615503044663946,19.615530192042637,-0.021973604446363555,0.023676253909862117,-19.61575528879347,19.615781884852833
51674626,1.02,0,9.21830940246582,-0.06480181962251663,-3.3556087017059326,0.0007008792599663138,0.0008162967278622091,0.0007984979311004281,999,999,1.5154227018356323,70.11833190917969,359.8828125,9.810277125259038,-0.021112611402869685,0.024006612516079606,-9.810225033839743,-0.021112611402869685,0.024006612516079606,-19.61687503383974,19.616901084347898,-0.022399649996058993,0.02416190425223966,-20.008079069578507,20.00810619715026
51694626,1.04,0,9.21660041809082,-0.06529468297958374,-3.356196880340576,0.0007644242723472416,0.0007285135798156261,0.0007900550263002515,999,999,1.5156809091567993,70.1182861328125,359.8825378417969,9.808875784817804,-0.02225187929908845,0.02354704004346332,-9.808822281637994,-0.02225187929908845,0.02354704004346332,-19.61547228163799,19.61549903624518,-0.022833294903078574,0.02463744077783509,-20.400402542733286,20.400430198120894
51714626,1.06,0,9.216962814331055,-0.06416729092597961,-3.3562417030334473,0.0007238689577206969,0.0007353918626904488,0.0007677803514525294,999,999,1.5158627033233643,70.11827087402344,359.88226318359375,9.809224196192432,-0.02213759073862942,0.024685748387859557,-9.809168153929765,-0.02213759073862942,0.024685748387859557,-19.615818153929766,19.61584617871831,-0.023277189603455754,0.02511976866214832,-20.792715447088963,20.79274364998389
51734626,1.08,0,9.217153549194336,-0.06406362354755402,-3.356113910675049,0.0006973264971747994,0.0007517819758504629,0.0007199590327218175,999,999,1.5159097909927368,70.11823272705078,359.8818359375,9.809359014671363,-0.021943067142401684,0.024788522001944355,-9.809303151075294,-0.021943067142401684,0.024788522001944355,-19.615953151075296,19.615981086710892,-0.023717996182266065,0.02561451136604636,-21.185033160139014,21.185061922088522
51754626,1.1,0,9.217341423034668,-0.06442152708768845,-3.3555421829223633,0.0008049850584939122,0.0007414253777824342,0.0007280240533873439,999,999,1.5160651206970215,70.11820983886719,359.8813781738281,9.809342301261305,-0.021347191961541334,0.024423658569775963,-9.809288667666575,-0.021347191961541334,0.024423658569775963,-19.615938667666576,19.615965488126232,-0.024150898773305497,0.026106633171763562,-21.577352078326435,21.577381387329307
51774626,1.12,0,9.217087745666504,-0.06498473137617111,-3.3556270599365234,0.000751383020542562,0.0007539569051004946,0.0007918865885585546,999,999,1.5163464546203613,70.11817169189453,359.88116455078125,9.809136684337002,-0.021521662136670727,0.02387981700314684,-9.809084007408881,-0.021521662136670727,0.02387981700314684,-19.615734007408882,19.61576034919418,-0.024579587314287617,0.026589667927492792,-21.96966880507719,21.969698645437422
51794626,1.14,0,9.216398239135742,-0.06482811272144318,-3.3561785221099854,0.0007285659667104483,0.0007508514099754393,0.000759710615966469,999,999,1.5164307355880737,70.11814880371094,359.8807678222656,9.808676437665573,-0.02226617930617225,0.024057610437642374,-9.808621661959183,-0.02226617930617225,0.024057610437642374,-19.615271661959184,19.61529905262267,-0.02501746572871604,0.027069042201900678,-22.36197886177087,22.362009239353345
51814626,1.16,0,9.217175483703613,-0.06522897630929947,-3.356454849243164,0.0007567042484879494,0.0007689440972171724,0.0007755359401926398,999,999,1.51662278175354,70.11814880371094,359.8804626464844,9.809503956456986,-0.02227218924841301,0.023675582566550307,-9.809450101209624,-0.02227218924841301,0.023675582566550307,-19.616100101209625,19.616127032732532,-0.025462849414261895,0.027546374131942605,-22.754292579402556,22.75432350012811
51834626,1.18,0,9.217029571533203,-0.06522615253925323,-3.35563588142395,0.000777114590164274,0.0007399361347779632,0.0007540018996223807,999,999,1.5168076753616333,70.11813354492188,359.88006591796875,9.80908664158863,-0.021549027312860236,0.023666200957973726,-9.809034422028837,-0.021549027312860236,0.023666200957973726,-19.615684422028835,19.615710535034683,-0.025901061579874627,0.028019791967187846,-23.14661042463494,23.146641875735487
51854626,1.2,0,9.217281341552734,-0.06534355878829956,-3.356443166732788,0.0007112904568202794,0.0007377280853688717,0.000722536351531744,999,999,1.5167752504348755,70.11808013916016,359.87957763671875,9.809600187648757,-0.022216100687636686,0.023569890935420112,-9.80954671463621,-0.022216100687636686,0.023569890935420112,-19.61619671463621,19.616223455145306,-0.0263387128598796,0.028492152886121783,-23.53892923600159,23.538961215569
51874626,1.22,0,9.217268943786621,-0.06614121049642563,-3.355595827102661,0.0007428645039908588,0.000744032789953053,0.0007930495194159448,999,999,1.516952633857727,70.11803436279297,359.8792419433594,9.809303991450568,-0.021437283238587845,0.022758967593658752,-9.809254164765507,-0.021437283238587845,0.022758967593658752,-19.615904164765507,19.615929081462937,-0.026775246699141844,0.028955441471412574,-23.931250244795606,23.931282740598267
51894626,1.24,0,9.215858459472656,-0.06524575501680374,-3.3555896282196045,0.000772855244576931,0.0007774528348818421,0.000759286165703088,999,999,1.5170918703079224,70.11805725097656,359.87884521484375,9.807970529451872,-0.021890641936407107,0.023663210459868175,-9.807917554652606,-0.021890641936407107,0.023663210459868175,-19.614567554652606,19.614594043817586,-0.027208525950891793,0.029419663251947843,-24.32355496198979,24.323587971543354
51914626,1.26,0,9.217716217041016,-0.06527428328990936,-3.356001853942871,0.000771667342633009,0.0007869848632253706,0.0007643918506801128,999,999,1.5172176361083984,70.1180648803711,359.8784484863281,9.809857360513858,-0.021648195298217043,0.02365261120773013,-9.809804959490851,-0.021648195298217043,0.02365261120773013,-19.616454959490852,19.61648116426873,-0.027643914323238036,0.029892821468623827,-24.715865187131225,24.715898723599345
51934626,1.28,0,9.218162536621094,-0.06459776312112808,-3.3560333251953125,0.0007809573435224593,0.0007413576822727919,0.0007354479748755693,999,999,1.5172680616378784,70.1180419921875,359.8779296875,9.81028302865857,-0.021503548030300745,0.024332571401368255,-9.81022928507675,-0.021503548030300745,0.024332571401368255,-19.61687928507675,19.61690616182588,-0.028075431756523214,0.03037267329471481,-25.108198529576903,25.10823259669623
51954626,1.3,0,9.217310905456543,-0.06505464762449265,-3.3565831184387207,0.0007262238068506122,0.000752373191062361,0.0007048326660878956,999,999,1.5172250270843506,70.1180191040039,359.8774108886719,9.809673932706096,-0.02231821921211763,0.023889820337264,-9.80961945437176,-0.02231821921211763,0.023889820337264,-19.61626945437176,19.616296697719047,-0.028513649428947397,0.030854897212101134,-25.50053001697139,25.500564625108687
51974626,1.32,0,9.216364860534668,-0.06404711306095123,-3.3552963733673096,0.0007257524994201958,0.0007569290464743972,0.0007616124930791557,999,999,1.5173736810684204,70.11800384521484,359.8770446777344,9.808338137947809,-0.021400312120331666,0.024869814002612733,-9.808283261983927,-0.021400312120331666,0.024869814002612733,-19.61493326198393,19.614960702308096,-0.02895083474227189,0.0313424935554999,-25.892842044134948,25.892877198667144
51994626,1.34,0,9.216858863830566,-0.06440753489732742,-3.355207920074463,0.000824427348561585,0.0007832877454347908,0.0007426404627040029,999,999,1.51751708984375,70.11799621582031,359.8765869140625,9.808774430745872,-0.021157333913522258,0.024515222776750986,-9.8087209769841,-0.021157333913522258,0.024515222776750986,-19.6153709769841,19.615397706741412,-0.02937641120261043,0.03183634392329354,-26.28514508652463,26.285180782067666
52014626,1.36,0,9.2166748046875,-0.06555114686489105,-3.35514760017395,0.0007409433019347489,0.0007987167336978018,0.0007817911682650447,999,999,1.5173135995864868,70.11793518066406,359.8759460449219,9.808588421743961,-0.021183564897151452,0.0233587877571666,-9.808537732546194,-0.021183564897151452,0.0233587877571666,-19.615187732546193,19.615213079633314,-0.02979982019071717,0.032315084028632715,-26.677450673619933,26.677486889461004
52034626,1.38,0,9.216545104980469,-0.06577476859092712,-3.354846954345703,0.0007675662054680288,0.0008193009998649359,0.0007808691007085145,999,999,1.5171750783920288,70.11788940429688,359.8752746582031,9.808365209320321,-0.020943080197628916,0.02311889616566097,-9.808315603784228,-0.020943080197628916,0.02311889616566097,-19.614965603784228,19.61499040870544,-0.03022108664166497,0.032779860867860985,-27.069752206983235,27.06978892383223
52054626,1.4,0,9.21782112121582,-0.06588666886091232,-3.3557443618774414,0.000771363265812397,0.0007357750437222421,0.000828457297757268,999,999,1.517167568206787,70.11775207519531,359.8747863769531,9.8098719409653,-0.02133201803510243,0.023031384172852318,-9.809821710841026,-0.02133201803510243,0.023031384172852318,-19.616471710841026,19.616496830012146,-0.03064383762399228,0.03324136367124612,-27.462066580129488,27.46210379567647
52074626,1.42,0,9.217062950134277,-0.0649896115064621,-3.355675220489502,0.0007876435411162674,0.0007654631044715643,0.0007821931503713131,999,999,1.517001748085022,70.11767578125,359.87408447265625,9.809129893204036,-0.021487306070289147,0.023917188525322916,-9.809077200507696,-0.021487306070289147,0.023917188525322916,-19.615727200507695,19.61575355016897,-0.0310720308650462,0.03371084939822787,-27.854388569242975,27.854426299222947
52094626,1.44,0,9.216836929321289,-0.06464540958404541,-3.3546993732452393,0.0007740465807728469,0.0007583476835861802,0.0007842910126782954,999,999,1.5168300867080688,70.1175537109375,359.8734130859375,9.808581441550709,-0.020616457620239892,0.024223712301296454,-9.808529862776101,-0.020616457620239892,0.024223712301296454,-19.615179862776102,19.615205654685848,-0.031493068501951486,0.034192258406494064,-28.246697639875812,28.24673589076204
52114626,1.46,0,9.217744827270508,-0.06527995318174362,-3.3557796478271484,0.000766483717598021,0.0007828476373106241,0.0007633583154529333,999,999,1.5166493654251099,70.11746215820312,359.8727111816406,9.809808266104415,-0.02132447643719848,0.023609224718075902,-9.809756678376043,-0.02132447643719848,0.023609224718075902,-19.616406678376045,19.61643247637611,-0.03191247784252587,0.034670587776687786,-28.639013505287334,28.639052271538755
52134626,1.48,0,9.217089653015137,-0.06506514549255371,-3.354980945587158,0.0007511310977861285,0.0007593349437229335,0.0007672415813431144,999,999,1.5164453983306885,70.11734008789062,359.87200927734375,9.808917997930738,-0.020769607961442116,0.023789895055468566,-9.808867159586164,-0.020769607961442116,0.023789895055468566,-19.61551715958616,19.61554258168101,-0.03233341868651227,0.03514457897442323,-29.031332743666958,29.031372021744072
52154626,1.5,0,9.217721939086914,-0.06534126400947571,-3.355811357498169,0.0007622434059157968,0.0006997486343607306,0.0007207375601865351,999,999,1.516106128692627,70.1171875,359.8711853027344,9.809798014955266,-0.021316358853793016,0.023517502865553083,-9.809746665134858,-0.021316358853793016,0.023517502865553083,-19.616396665134857,19.616422344148532,-0.03275427835466462,0.03561765295363345,-29.423651881914168,29.423691670625285
52174626,1.52,0,9.216350555419922,-0.06473785638809204,-3.3565211296081543,0.000685611623339355,0.0007233198848553002,0.0007579069933854043,999,999,1.5157864093780518,70.11705780029297,359.8704528808594,9.808748271005063,-0.022411233955284438,0.024123495714112514,-9.808693003529672,-0.022411233955284438,0.024123495714112514,-19.615343003529674,19.615370640203906,-0.033191554282755394,0.036094062939430106,-29.815969278600814,29.81600960026547
52194626,1.54,0,9.217227935791016,-0.06419900804758072,-3.3558428287506104,0.0007915691239759326,0.0007065590471029282,0.0007224794826470315,999,999,1.5155531167984009,70.1169204711914,359.8696594238281,9.809337053248681,-0.02143688713758385,0.024628642541335163,-9.809282711496998,-0.02143688713758385,0.024628642541335163,-19.615932711496995,19.615959886075967,-0.033630035493684075,0.036581584321984585,-30.208282035751083,30.208322905171023
52214626,1.56,0,9.217123031616211,-0.0642932802438736,-3.3557381629943848,0.0007403031922876835,0.00073274876922369,0.0007269133348017931,999,999,1.5151902437210083,70.11678314208984,359.86883544921875,9.809203292032002,-0.021353069404070446,0.02451049566204301,-9.809149428285865,-0.021353069404070446,0.02451049566204301,-19.615799428285865,19.61582636364603,-0.03405793505910062,0.037072975704018366,-30.600599357148912,30.60064076723248
52234626,1.58,0,9.217506408691406,-0.06515982747077942,-3.3560197353363037,0.0007657741662114859,0.0008002613903954625,0.0007561319507658482,999,999,1.515085220336914,70.11670684814453,359.8681945800781,9.809665573369458,-0.021497616829306843,0.023646113851855485,-9.809613518132112,-0.021497616829306843,0.023646113851855485,-19.61626351813211,19.616289549734688,-0.034486441921434394,0.03755454179915735,-30.992919986613092,30.992961926135543
52254626,1.6,0,9.217836380004883,-0.06479586660861969,-3.3560264110565186,0.0007759113796055317,0.0007899652700871229,0.0007932664593681693,999,999,1.5149970054626465,70.11663055419922,359.86761474609375,9.809975499693156,-0.021368521773297733,0.024004876859321414,-9.80992285681922,-0.021368521773297733,0.024004876859321414,-19.616572856819218,19.61659918270066,-0.03491510330746044,0.038031051706269116,-31.385248350362605,31.385290813361465
52274626,1.62,0,9.21753215789795,-0.06435318291187286,-3.35587739944458,0.0007222273270599544,0.0007434384897351265,0.0007070089923217893,999,999,1.5145739316940308,70.11650848388672,359.8667297363281,9.80963574930979,-0.021298840495976634,0.02441885231500429,-9.809582234386017,-0.021298840495976634,0.02441885231500429,-19.61623223438602,19.616258995902353,-0.03534177693015319,0.038515288998012376,-31.777576401274658,31.7776193949064
52294626,1.64,0,9.217825889587402,-0.0652947649359703,-3.355802059173584,0.0007558490033261478,0.0008388850255869329,0.0006886610062792897,999,999,1.5142194032669067,70.1164779663086,359.8658142089844,9.809892201111564,-0.021148298308242275,0.023454825862215548,-9.809841365590575,-0.021148298308242275,0.023454825862215548,-19.616491365590576,19.61651678753563,-0.03576624831819537,0.03899402577978457,-32.16990363727442,32.1699471524292
52314626,1.66,0,9.216995239257812,-0.06604379415512085,-3.3561019897460938,0.0007702371804043651,0.0007588349981233478,0.0007065908284857869,999,999,1.5138821601867676,70.11637115478516,359.864990234375,9.809219315971342,-0.021714667635545748,0.02269586387575076,-9.809169024937724,-0.021714667635545748,0.02269586387575076,-19.61581902493772,19.615844173732015,-0.03619487797763325,0.039455532677164236,-32.56222674117971,32.562270761607664
52334626,1.68,0,9.217517852783203,-0.06420895457267761,-3.3556346893310547,0.0007435394218191504,0.0007317035924643278,0.0007458756444975734,999,999,1.5136812925338745,70.11624908447266,359.86431884765625,9.809538333910842,-0.021026677709795383,0.02450458223422934,-9.809485191830422,-0.021026677709795383,0.02450458223422934,-19.616135191830423,19.616161766765025,-0.03662229143108666,0.03992753713826404,-32.95454628334739,32.954590820426475
52354626,1.7,0,9.21653938293457,-0.06496423482894897,-3.3560843467712402,0.0007222339627332985,0.0007753049139864743,0.0007769275107420981,999,999,1.5135366916656494,70.11614227294922,359.86370849609375,9.80877773688617,-0.021784228519703408,0.02375499669757368,-9.808724781497006,-0.021784228519703408,0.02375499669757368,-19.615374781497003,19.615401262045822,-0.03705040049338165,0.04041013292758207,-33.346861383080665,33.3469064504253
52374626,1.72,0,9.216797828674316,-0.06525997817516327,-3.356567859649658,0.0008020245586521924,0.0007244053995236754,0.0007633934146724641,999,999,1.51345956325531,70.11600494384766,359.8630676269531,9.809187982490707,-0.022135141087923582,0.023468690579520196,-9.809134932904715,-0.022135141087923582,0.023468690579520196,-19.615784932904717,19.615811461111676,-0.03748959418945792,0.04088236980035301,-33.73917298022468,33.739218577604255
52394626,1.74,0,9.21837329864502,-0.06540315598249435,-3.3563268184661865,0.0007520564831793308,0.0007122227689251304,0.0007629720494151115,999,999,1.513253927230835,70.1158447265625,359.8623962402344,9.810586810091397,-0.02134902164012864,0.023305520044391667,-9.810535899243717,-0.02134902164012864,0.023305520044391667,-19.617185899243715,19.61721135975947,-0.03792443581673845,0.04135011190659213,-34.13150268854616,34.13154880565517
52414626,1.76,0,9.217643737792969,-0.06507399678230286,-3.355355978012085,0.0007791356183588505,0.0007038559997454286,0.0007689314661547542,999,999,1.5130956172943115,70.11568450927734,359.8616943359375,9.809566985403208,-0.02064797973030208,0.02359822468352131,-9.809516870154077,-0.02064797973030208,0.02359822468352131,-19.616166870154075,19.61619193148878,-0.038344405830442754,0.04181914935387126,-34.52383621624014,34.523882838123605
52434626,1.78,0,9.217024803161621,-0.06438139826059341,-3.356344223022461,0.0007542867679148912,0.0007612166227772832,0.0007840461912564933,999,999,1.5129517316818237,70.11558532714844,359.8610534667969,9.809318922838361,-0.021751385986727545,0.024311156227195818,-9.809264680639691,-0.021751385986727545,0.024311156227195818,-19.61591468063969,19.615941805410344,-0.03876839948761305,0.04229824316297843,-34.91615703174808,34.91620417507986
52454626,1.8,0,9.217202186584473,-0.06502243131399155,-3.355526924133301,0.0007826992659829557,0.0007322661695070565,0.0007686738390475512,999,999,1.5128331184387207,70.1154556274414,359.86041259765625,9.80921021303627,-0.020917867888682995,0.023640031154820898,-9.809159423480947,-0.020917867888682995,0.023640031154820898,-19.615809423480947,19.61583482155664,-0.03919509202636715,0.0427777550367986,-35.30847427278928,35.30852194108085
52474626,1.82,0,9.216768264770508,-0.06484058499336243,-3.3557446002960205,0.0007873925496824086,0.0007302732556127012,0.0007431978010572493,999,999,1.512606143951416,70.11531066894531,359.85968017578125,9.808875744465261,-0.021240110530104328,0.023815323002027322,-9.808823836651055,-0.021240110530104328,0.023815323002027322,-19.615473836651056,19.61549979348594,-0.039616671810555025,0.04325230857836708,-35.7007871053906,35.70083528696922
52494626,1.84,0,9.217318534851074,-0.06440480053424835,-3.3561196327209473,0.0007997349603101611,0.0007794166449457407,0.0007634315406903625,999,999,1.512451171875,70.115234375,359.8589782714844,9.809518231818318,-0.0213803133992867,0.024252383643591308,-9.809464951997256,-0.0213803133992867,0.024252383643591308,-19.616114951997254,19.616141595784928,-0.040042876049848936,0.043732985644823266,-36.093102993277085,36.09315170069335
52514626,1.86,0,9.217405319213867,-0.06444685161113739,-3.355893135070801,0.0007758394349366426,0.0007756482227705419,0.0007855931180529296,999,999,1.5122745037078857,70.11514282226562,359.8582763671875,9.80952256480253,-0.021123163408377277,0.024193646057951892,-9.809469987151605,-0.021123163408377277,0.024193646057951892,-19.616119987151606,19.616146279809158,-0.04046791081792558,0.0442174459418387,-36.48542534266858,36.48547457920445
52534626,1.88,0,9.216171264648438,-0.06507392227649689,-3.3549675941467285,0.0007628471357747912,0.000764992437325418,0.0007726236945018172,999,999,1.5120826959609985,70.11505126953125,359.85760498046875,9.808050517430399,-0.02067417699572527,0.02353026489823816,-9.808000502523749,-0.02067417699572527,0.02353026489823816,-19.614650502523748,19.614675511746704,-0.040885884221966595,0.0446946850514006,-36.87773304756533,36.877782796663524
52554626,1.9,0,9.216297149658203,-0.06439980864524841,-3.3547909259796143,0.0007754195248708129,0.0007841785554774106,0.0007414340507239103,999,999,1.5117751359939575,70.11495971679688,359.85675048828125,9.808103927018037,-0.02043102602371949,0.024181174083455825,-9.808052838722993,-0.02043102602371949,0.024181174083455825,-19.61470283872299,19.61472838474732,-0.04129693625216104,0.04517179944121754,-37.2700265809778,37.27007683484433
52574626,1.92,0,9.216897964477539,-0.06493465602397919,-3.3542771339416504,0.0007763493922539055,0.000779453432187438,0.0007663120049983263,999,999,1.5116099119186401,70.11487579345703,359.8560485839844,9.80849630108647,-0.019743752392056724,0.023621806037833287,-9.808447985433167,-0.019743752392056724,0.023621806037833287,-19.615097985433167,19.615122145518832,-0.0416986840363188,0.04564982924243043,-37.66232458921936,37.66237533867026
52594626,1.94,0,9.215999603271484,-0.06551331281661987,-3.355180025100708,0.0007778066792525351,0.0007683415897190571,0.0008138093980960548,999,999,1.5116050243377686,70.11476135253906,359.8555603027344,9.8079648083836,-0.02089403930078193,0.023069949006006188,-9.807915420672513,-0.02089403930078193,0.023069949006006188,-19.614565420672513,19.614590116167793,-0.04210506195324719,0.046116746792868826,-38.054621223280414,38.0546724600005
52614626,1.96,0,9.216453552246094,-0.06547059118747711,-3.356226921081543,0.0007666164892725646,0.0007676592795178294,0.0007789320661686361,999,999,1.5113621950149536,70.11468505859375,359.8548278808594,9.808749238552924,-0.02170929884353834,0.023128379317911535,-9.808697946681121,-0.02170929884353834,0.023128379317911535,-19.61534794668112,19.615373595344884,-0.04253109533469039,0.046578730076108,-38.44692035695395,38.446972096722085
52634626,1.98,0,9.216254234313965,-0.06459136307239532,-3.3564767837524414,0.0006931721582077444,0.0007977767963893712,0.0007493151351809502,999,999,1.511017918586731,70.11461639404297,359.85406494140625,9.808641626421203,-0.021976037964116735,0.023994692326748057,-9.808587658988337,-0.021976037964116735,0.023994692326748057,-19.615237658988335,19.615264645425984,-0.04296794870276694,0.0470499607925546,-38.83922621301065,38.83927847899391
52654626,2.0,0,9.21626091003418,-0.06458832323551178,-3.3544273376464844,0.0007323481841012836,0.000768784899264574,0.0007226500893011689,999,999,1.5106464624404907,70.11453247070312,359.8531799316406,9.807946756425245,-0.020032716069021017,0.02391729861002259,-9.807897135981117,-0.020032716069021017,0.02391729861002259,-19.614547135981116,19.61457194782774,-0.04338803624309832,0.047529080701922306,-39.23152406096034,39.23157684418141
52674626,2.02,0,9.21652603149414,-0.06559456884860992,-3.3556339740753174,0.000727088947314769,0.0008081200066953897,0.0007261657156050205,999,999,1.5103528499603271,70.1144790649414,359.8524169921875,9.808615300063515,-0.021094977704219087,0.022929014542535014,-9.808565816002249,-0.021094977704219087,0.022929014542535014,-19.615215816002248,19.615240560496243,-0.04379931318083072,0.047997543833447884,-39.62382169048017,39.62387496829425
52694626,2.04,0,9.216450691223145,-0.06340894848108292,-3.3554282188415527,0.0007641963893547654,0.000749572878703475,0.0008177119307219982,999,999,1.5104302167892456,70.11434173583984,359.85198974609375,9.808459745051373,-0.020843658693247225,0.02511249971159553,-9.808405450150588,-0.020843658693247225,0.02511249971159553,-19.615055450150585,19.615082600086893,-0.04421869954480538,0.04847795897598919,-40.016124403141696,40.01617819899357
52714626,2.06,0,9.215632438659668,-0.06390602141618729,-3.3557891845703125,0.0007696598186157644,0.0007556196651421487,0.0007485956884920597,999,999,1.5101861953735352,70.1142349243164,359.8512268066406,9.807817610219344,-0.021456409006514132,0.024612687504256478,-9.807763257412724,-0.021456409006514132,0.024612687504256478,-19.61441325741272,19.614440435414963,-0.04464170022180299,0.04897521084814771,-40.40841909021733,40.40847342851888
52734626,2.08,0,9.216958999633789,-0.06584888696670532,-3.3566598892211914,0.0007495963363908231,0.0007008869433775544,0.0007706639007665217,999,999,1.51006019115448,70.11404418945312,359.8506164550781,9.809374846989561,-0.021843989304530353,0.022687293967227573,-9.809324289449053,-0.021843989304530353,0.022687293967227573,-19.615974289449053,19.61599957171448,-0.04507470420491344,0.04944821066286255,-40.80072296568595,40.80077782808987
52754626,2.1,0,9.216357231140137,-0.0651327520608902,-3.3553600311279297,0.0007642468553967774,0.0007487120456062257,0.0007685864111408591,999,999,1.5099564790725708,70.11394500732422,359.8499755859375,9.808359894797444,-0.020790050535876237,0.023360338752387105,-9.80831004272617,-0.020790050535876237,0.023360338752387105,-19.614960042726167,19.61498497091884,-0.045501044603317504,0.049908686990058695,-41.193032309007705,41.19308767297069
52774626,2.12,0,9.217455863952637,-0.06478354334831238,-3.3383450508117676,0.0007764951442368329,0.0005102969007566571,0.0007767127244733274,999,999,1.509853720664978,70.11355590820312,359.849365234375,9.803582875137183,-0.004346406832042238,0.02321207212798737,-9.803554431844514,-0.004346406832042238,0.02321207212798737,-19.610204431844515,19.610218651261363,-0.04575240917699669,0.05037441109886244,-41.58528395375341,41.58533963283864
52794626,2.14,0,9.21789836883545,-0.06565425544977188,-3.3679914474487305,0.0007488583214581013,0.0007621609256602824,0.0007848358945921063,999,999,1.5097086429595947,70.1135482788086,359.8487243652344,9.814139147654556,-0.03208497221605677,0.02318756798774474,-9.81405930799149,-0.03208497221605677,0.02318756798774474,-19.62070930799149,19.620749243019624,-0.04611672296747768,0.050838407500019764,-41.977593091151775,41.97764920790738
52814626,2.16,0,9.218155860900879,-0.06462585926055908,-3.35536527633667,0.0007899034535512328,0.0007944248500280082,0.0007740245200693607,999,999,1.5096572637557983,70.11341857910156,359.8481140136719,9.810048425731253,-0.020078545496692968,0.023848461305699106,-9.809998889811167,-0.020078545496692968,0.023848461305699106,-19.616648889811167,19.616673662046416,-0.04663835814460518,0.0513087677929542,-42.3699666731298,42.37002340816244
52834626,2.18,0,9.216317176818848,-0.06588524580001831,-3.356342077255249,0.0007533612078987062,0.0007855095900595188,0.0007425923831760883,999,999,1.5094081163406372,70.11334228515625,359.8473815917969,9.80866327839295,-0.02164346956093066,0.0226050703478356,-9.808613351535184,-0.02164346956093066,0.0226050703478356,-19.615263351535184,19.615288317510384,-0.047055578295181415,0.05177330310948955,-42.762285795543264,42.76234302703823
52854626,2.2,0,9.216646194458008,-0.0647733211517334,-3.355937957763672,0.000792998936958611,0.0008036770159378648,0.000803908915258944,999,999,1.5095115900039673,70.11327362060547,359.8469543457031,9.808826751110924,-0.02110920036523467,0.02371076455226505,-9.808775378945814,-0.02110920036523467,0.02371076455226505,-19.615425378945815,19.61545106786197,-0.04748310499444307,0.052236461458490556,-43.154592682848076,43.154650420501504
52874626,2.22,0,9.216690063476562,-0.06408081948757172,-3.355455160140991,0.0007497830665670335,0.0008254700805991888,0.0007532972376793623,999,999,1.5093108415603638,70.11325073242188,359.84625244140625,9.808698252537418,-0.020617354998594184,0.02437749115018807,-9.808646291508767,-0.020617354998594184,0.02437749115018807,-19.615296291508766,19.6153222747188,-0.047900370548081356,0.05271734401551509,-43.54689989955262,43.54695815353255
52894626,2.24,0,9.217643737792969,-0.06407491862773895,-3.3551101684570312,0.0007624286809004843,0.0007780261221341789,0.0007983067771419883,999,999,1.5093233585357666,70.11316680908203,359.8457336425781,9.809476332330632,-0.019953913863110184,0.024373437148804217,-9.809425757476221,-0.019953913863110184,0.024373437148804217,-19.61607575747622,19.6161010485306,-0.0483060832366984,0.05320485329850501,-43.93921362004247,43.93927238566677
52914626,2.26,0,9.216245651245117,-0.06487436592578888,-3.354893922805786,0.0007913168519735336,0.0007976407650858164,0.0007879551849327981,999,999,1.509193778038025,70.11310577392578,359.8450927734375,9.808093893347882,-0.020237538432009927,0.023561970485594164,-9.808044713209307,-0.020237538432009927,0.023561970485594164,-19.614694713209307,19.614719305073322,-0.04870799775964959,0.05368420737484898,-44.33152132474932,44.33158058799472
52934626,2.28,0,9.216960906982422,-0.06707662343978882,-3.3554420471191406,0.0007492366130463779,0.0008187413914129138,0.0007765227346681058,999,999,1.5089586973190308,70.11307525634766,359.8443603515625,9.808968292630443,-0.020564568934255956,0.02136228318021778,-9.808923473918597,-0.020564568934255956,0.02136228318021778,-19.615573473918595,19.615595885910192,-0.04911601883331225,0.054133449911507106,-44.723824006620596,44.723883737762286
52954626,2.3,0,9.216670989990234,-0.06495533883571625,-3.3555054664611816,0.0008012447506189346,0.0007838444435037673,0.0007422048365697265,999,999,1.5087727308273315,70.11299133300781,359.8436279296875,9.808703291935265,-0.02064994481518756,0.02347411386684936,-9.808653465944191,-0.02064994481518756,0.02347411386684936,-19.61530346594419,19.615328381531747,-0.049528163970806685,0.054581813881977775,-45.11613277601922,45.11619297853963
52974626,2.32,0,9.217926025390625,-0.06526689231395721,-3.3564112186431885,0.0007808664813637733,0.0007818326121196151,0.0007516519399359822,999,999,1.5085800886154175,70.11292266845703,359.8428955078125,9.81019450599426,-0.021071014934694432,0.023176648179046647,-9.810144499483624,-0.021071014934694432,0.023176648179046647,-19.616794499483625,19.616819507240773,-0.04994537356830551,0.055048321502436735,-45.5084537556735,45.50851445708061
52994626,2.34,0,9.216689109802246,-0.06526371836662292,-3.356778860092163,0.0007285294705070555,0.0007833485142327845,0.0007540223887190223,999,999,1.5083084106445312,70.11286163330078,359.8421325683594,9.809158058429071,-0.02182664285640401,0.023175943813874306,-9.809106396024765,-0.02182664285640401,0.023175943813874306,-19.615756396024764,19.615782230512668,-0.050374350146216496,0.055511847422365944,-45.90077926462858,45.900840474227856
53014626,2.36,0,9.217572212219238,-0.06421075761318207,-3.3562798500061035,0.0008000422967597842,0.0007944466779008508,0.0007373902481049299,999,999,1.5080161094665527,70.11278533935547,359.84130859375,9.809810137837863,-0.0210149790040437,0.024196350362365227,-9.80975778741316,-0.0210149790040437,0.024196350362365227,-19.61640778741316,19.616433966824783,-0.05080276636482097,0.05598557036412834,-46.29310090646296,46.29316263597812
53034626,2.38,0,9.216337203979492,-0.06498115509748459,-3.356234550476074,0.0007374472334049642,0.0007727223564870656,0.0007391641847789288,999,999,1.5077459812164307,70.11271667480469,359.84051513671875,9.808639271875771,-0.021401776641473802,0.023410567159916018,-9.808587985795176,-0.021401776641473802,0.023410567159916018,-19.615237985795176,19.615263631419285,-0.05122693392127615,0.05646163953935115,-46.68541736419505,46.685479611808454
53054626,2.4,0,9.218330383300781,-0.06541502475738525,-3.3560259342193604,0.0007376470603048801,0.0007735674735158682,0.0007353599648922682,999,999,1.5073970556259155,70.11263275146484,359.8397216796875,9.810443631778497,-0.020525109662569818,0.022948760421452608,-9.810395319586856,-0.020525109662569818,0.022948760421452608,-19.617045319586857,19.617069480339214,-0.051646202784316586,0.05692523281516484,-47.077740197248865,47.07780294249143
53074626,2.42,0,9.217643737792969,-0.06451544165611267,-3.3565940856933594,0.0007954993052408099,0.0008199884905479848,0.0008047609007917345,999,999,1.5074130296707153,70.11258697509766,359.8392028808594,9.809986859073648,-0.021259895153724617,0.023866166145655496,-9.80993479071952,-0.021259895153724617,0.023866166145655496,-19.61658479071952,19.61661082930782,-0.05206405283247953,0.05739338208083592,-47.47007649835193,47.47013974516283
53094626,2.44,0,9.216747283935547,-0.06452547758817673,-3.3566746711730957,0.0007831632392480969,0.0007788479560986161,0.0007554527837783098,999,999,1.5072048902511597,70.11248779296875,359.83843994140625,9.809172181243751,-0.02162368477058063,0.023847367498772337,-9.809119359076359,-0.02162368477058063,0.023847367498772337,-19.61576935907636,19.61579577353819,-0.052492888631722585,0.0578705174172802,-47.86240003984989,47.862463811161724
53114626,2.46,0,9.216218948364258,-0.06598032265901566,-3.3558928966522217,0.0007510067080147564,0.0008008633740246296,0.0007593403570353985,999,999,1.507004737854004,70.1124267578125,359.8377685546875,9.808417927523653,-0.021098055142765748,0.022359497718377044,-9.808369750672044,-0.021098055142765748,0.022359497718377044,-19.615019750672044,19.615043841254177,-0.05292010603085605,0.05833258606945169,-48.25470793094737,48.25477220679064
53134626,2.48,0,9.217116355895996,-0.06634404510259628,-3.3566982746124268,0.0007584732957184315,0.0007760613225400448,0.0008254044805653393,999,999,1.5069652795791626,70.11231994628906,359.8372497558594,9.809539171501998,-0.021541361136611314,0.022016219210545127,-9.809490813140311,-0.021541361136611314,0.022016219210545127,-19.616140813140312,19.61616499586749,-0.053346500193649816,0.05877634323874092,-48.64701953658549,48.64708429392802
53154626,2.5,0,9.217446327209473,-0.0647726058959961,-3.3555939197540283,0.0007875372539274395,0.0007564799161627889,0.0007795757846906781,999,999,1.506836175918579,70.11222076416016,359.8365478515625,9.809460884256186,-0.020330544546547813,0.02354732643961209,-9.809411553815455,-0.020330544546547813,0.02354732643961209,-19.616061553815456,19.616086222554713,-0.05376521925048141,0.05923197869524249,-49.039341560255046,49.03940680503241
53174626,2.52,0,9.217652320861816,-0.06463631242513657,-3.356175422668457,0.0007956577464938164,0.0007729151984676719,0.0007142527028918266,999,999,1.506522297859192,70.11214447021484,359.8357238769531,9.80985247742783,-0.020790069884315088,0.023682086762652974,-9.809801861437249,-0.020790069884315088,0.023682086762652974,-19.61645186143725,19.616477173547857,-0.05417642539479004,0.05970427282726514,-49.431666694407575,49.43173243850822
53194626,2.54,0,9.217584609985352,-0.0658615306019783,-3.3567912578582764,0.0007755245896987617,0.0008661561878398061,0.000714068824891001,999,999,1.5062416791915894,70.11212921142578,359.83489990234375,9.810007713161381,-0.021422978804839232,0.022459158075514296,-9.80995861227169,-0.021422978804839232,0.022459158075514296,-19.61660861227169,19.61663316690339,-0.05459855588168158,0.060165685275646814,-49.823997299144665,49.82406354139698
53214626,2.56,0,9.21650218963623,-0.06524889916181564,-3.355496406555176,0.0007641409174539149,0.0007383819902315736,0.000756502733565867,999,999,1.505971074104309,70.11200714111328,359.8341369628906,9.808543529230828,-0.02053612902984714,0.023019412275868498,-9.808495019057657,-0.02053612902984714,0.023019412275868498,-19.615145019057657,19.615169276470684,-0.05501814696002844,0.060620470979160644,-50.21631483545796,50.216381565101166
53234626,2.58,0,9.216850280761719,-0.06547045707702637,-3.3549156188964844,0.0007761578308418393,0.0007632373599335551,0.0007444613729603589,999,999,1.5057419538497925,70.11190032958984,359.8333740234375,9.808673421449143,-0.019859453440938868,0.022767554297941167,-9.80862689316008,-0.019859453440938868,0.022767554297941167,-19.61527689316008,19.615300159690634,-0.055422102784736305,0.06107834064489874,-50.60861905458014,50.60868625823817
53254626,2.6,0,9.216728210449219,-0.06403644382953644,-3.3557090759277344,0.0007840783800929785,0.0008349409908987582,0.0007537448545917869,999,999,1.5055421590805054,70.11187744140625,359.8326416015625,9.808820671910183,-0.020603074813176026,0.024212651667879434,-9.808769149822012,-0.020603074813176026,0.024212651667879434,-19.61541914982201,19.615444913699932,-0.055826728067277454,0.06154814270455695,-51.00092601500996,51.00099370782845
53274626,2.62,0,9.216904640197754,-0.06402570754289627,-3.355782985687256,0.0007497822516597807,0.000776054454036057,0.0007228445028886199,999,999,1.5052546262741089,70.11178588867188,359.83184814453125,9.809011667071934,-0.020596385803945516,0.024208749509738295,-9.808960169665912,-0.020596385803945516,0.024208749509738295,-19.615610169665914,19.615635921452096,-0.05623872267344867,0.06203235671633313,-51.39323630820484,51.39330451564865
53294626,2.64,0,9.216915130615234,-0.06481240689754486,-3.356351852416992,0.0007710257777944207,0.0008024700218811631,0.0007440019981004298,999,999,1.5050556659698486,70.1117172241211,359.83111572265625,9.809221321301445,-0.021137321297093337,0.023427463367819465,-9.809170571352269,-0.021137321297093337,0.023427463367819465,-19.615820571352266,19.615845949636693,-0.05665605974445906,0.06250871884510871,-51.78555061561502,51.78561933405318
53314626,2.66,0,9.216659545898438,-0.06637092679738998,-3.3553504943847656,0.000798602297436446,0.0007821859326213598,0.000825351569801569,999,999,1.505042314529419,70.11161804199219,359.83056640625,9.808649001013995,-0.020308943267528523,0.021840145011323142,-9.808603661071338,-0.020308943267528523,0.021840145011323142,-19.615253661071336,19.61527633333987,-0.05707052239010528,0.06296139492890014,-52.17786135793926,52.17793055564879
53334626,2.68,0,9.217418670654297,-0.06586544215679169,-3.3558502197265625,0.000795121246483177,0.0007418353343382478,0.0007640167023055255,999,999,1.5048613548278809,70.11148834228516,359.829833984375,9.809529851314778,-0.020484043373484973,0.022348762505206482,-9.809483005776467,-0.020484043373484973,0.022348762505206482,-19.61613300577647,19.616156431970342,-0.05747845225651541,0.06340328400406543,-52.57017522460774,52.570244881442754
53354626,2.7,0,9.216751098632812,-0.06474614888429642,-3.3569090366363525,0.0008240811293944716,0.0007570157176814973,0.0008075542282313108,999,999,1.5049279928207397,70.11138916015625,359.829345703125,9.809257421344151,-0.02165819708838601,0.023503058468179072,-9.809205354509448,-0.02165819708838601,0.023503058468179072,-19.61585535450945,19.615881391369992,-0.057899874661134124,0.06386180221379929,-52.9624951082106,52.962565258987404
53374626,2.72,0,9.217151641845703,-0.06524763256311417,-3.3556745052337646,0.0007432862184941769,0.0007480712374672294,0.0007909828564152122,999,999,1.5047986507415771,70.11128997802734,359.8287353515625,9.809214699832495,-0.02035826372651428,0.022958092211614822,-9.809166707448192,-0.02035826372651428,0.022958092211614822,-19.61581670744819,19.61584070676308,-0.05832003926928313,0.06432641372059723,-53.35481182883017,53.354882479529074
53394626,2.74,0,9.216951370239258,-0.06482260674238205,-3.368027687072754,0.00075094576459378,0.0004773666150867939,0.0008071596967056394,999,999,1.5047016143798828,70.11088562011719,359.82818603515625,9.813256596695556,-0.03195655194526292,0.023736648586524703,-9.813175856107467,-0.03195655194526292,0.023736648586524703,-19.619825856107468,19.61986623995387,-0.0588431874260009,0.06479336112857863,-53.74716825446573,53.7472395205019
53414626,2.76,0,9.21664047241211,-0.06587165594100952,-3.362067222595215,0.0007539520156569779,0.0008203941397368908,0.0007214609067887068,999,999,1.504343032836914,70.11088562011719,359.8273010253906,9.810927411922403,-0.026488703212285802,0.02249440868138408,-9.810865865569188,-0.026488703212285802,0.02249440868138408,-19.61751586556919,19.617546645431446,-0.05942763997757637,0.0652556717012577,-54.13954167168249,54.139613614865475
53434626,2.78,0,9.216644287109375,-0.06470204144716263,-3.354918956756592,0.0007720122812315822,0.0008001829264685512,0.000773357052821666,999,999,1.5042835474014282,70.11079406738281,359.82672119140625,9.808475899734782,-0.01972015185488818,0.023452278048668854,-9.808428038271128,-0.01972015185488818,0.023452278048668854,-19.61507803827113,19.615101971215985,-0.059889728528248115,0.06571513856855823,-54.53186761072089,54.53194009360212
53454626,2.8,0,9.217193603515625,-0.06490041315555573,-3.356167793273926,0.000759137561544776,0.0007914624875411391,0.0007858770550228655,999,999,1.5040850639343262,70.11074829101562,359.8260192871094,9.809420586605832,-0.020704596090420857,0.02327836141645845,-9.809371115546439,-0.020704596090420857,0.02327836141645845,-19.616021115546438,19.616045854554205,-0.06029397600770121,0.0661824449632095,-54.92417860225906,54.924251570799
53474626,2.82,0,9.216174125671387,-0.06570334732532501,-3.355475902557373,0.0008357127080671489,0.0008322306675836444,0.0008276570588350296,999,999,1.5041818618774414,70.11073303222656,359.8255615234375,9.80823128689305,-0.020420496939114408,0.022462510093744004,-9.80818430781828,-0.020420496939114408,0.022462510093744004,-19.614834307818278,19.61485779923525,-0.060705226937996556,0.06663985367831153,-55.31648715649271,55.316560606468464
53494626,2.84,0,9.216143608093262,-0.06427957117557526,-3.3558602333068848,0.0007729879580438137,0.0008051093900576234,0.0007737314444966614,999,999,1.5040558576583862,70.11066436767578,359.82489013671875,9.8083246670244,-0.02074068793716899,0.023889728270836116,-9.808273644148922,-0.02074068793716899,0.023889728270836116,-19.614923644148924,19.614949157748164,-0.06111683878675939,0.06710337606195733,-55.70878473601238,55.70885867520917
53514626,2.86,0,9.217325210571289,-0.06567330658435822,-3.3555901050567627,0.0008018518565222621,0.0008059869287535548,0.0007497088517993689,999,999,1.503923773765564,70.11062622070312,359.8241882324219,9.809351761140265,-0.02011672236790396,0.0224799795624447,-9.809305375090823,-0.02011672236790396,0.0224799795624447,-19.61595537509082,19.615978571296267,-0.06152541288981012,0.06756707314029015,-56.10109352620478,56.101167951494375
53534626,2.88,0,9.21777629852295,-0.06626502424478531,-3.3550939559936523,0.0007807282963767648,0.0008184749167412519,0.0007477481849491596,999,999,1.5036860704421997,70.1105728149414,359.8234558105469,9.809609900327063,-0.01950403248047694,0.021859889608606436,-9.809566154246479,-0.01950403248047694,0.021859889608606436,-19.61621615424648,19.61623803057501,-0.06192162043829393,0.06801047183200065,-56.49341524149815,56.49349011487688
53554626,2.9,0,9.21712875366211,-0.06438186764717102,-3.355762481689453,0.0007404725765809417,0.0008145224419422448,0.0007843202911317348,999,999,1.5037444829940796,70.11053466796875,359.822998046875,9.809217569204035,-0.02029368231737827,0.023765967287927764,-9.80916778657792,-0.02029368231737827,0.023765967287927764,-19.61581778657792,19.615842681133273,-0.062319597586272486,0.068466730400966,-56.88573558090639,56.88581091982617
53574626,2.92,0,9.217134475708008,-0.06643117964267731,-3.3554303646087646,0.0007672467036172748,0.0008021474932320416,0.0007854689029045403,999,999,1.5036319494247437,70.11048126220703,359.8223876953125,9.80912299732511,-0.020027150387774917,0.02170143486707378,-9.809078546816943,-0.020027150387774917,0.02170143486707378,-19.615728546816943,19.61575077486042,-0.06272280591332402,0.06892140442251601,-57.27805104424034,57.27812685255141
53594626,2.94,0,9.217483520507812,-0.06541652977466583,-3.3565516471862793,0.0008060842519626021,0.0007222150452435017,0.0007832632400095463,999,999,1.5037068128585815,70.1103515625,359.8218994140625,9.809827762679108,-0.020911720209385365,0.022752470565424968,-9.80977908815845,-0.020911720209385365,0.022752470565424968,-19.616429088158448,19.616453429346187,-0.06313219461929562,0.069365943476841,-57.67037262059009,57.670448892875974
53614626,2.96,0,9.21767520904541,-0.06451824307441711,-3.356214761734009,0.0007726761978119612,0.0007638638489879668,0.0007751240627840161,999,999,1.5036038160324097,70.11024475097656,359.8213195800781,9.80988666550338,-0.020486428532659584,0.023634463626033983,-9.809836803351834,-0.020486428532659584,0.023634463626033983,-19.616486803351833,19.616511738525315,-0.06354617610671606,0.06982981281875558,-58.0627017795052,58.06277854404672
53634626,2.98,0,9.216384887695312,-0.06564608216285706,-3.357191801071167,0.0007296899566426873,0.0007842621416784823,0.0007847725646570325,999,999,1.5035052299499512,70.11017608642578,359.82073974609375,9.809016087020213,-0.021863181599055093,0.022531382772843,-9.80896584424179,-0.021863181599055093,0.022531382772843,-19.615615844241788,19.615640968645117,-0.06396967220803321,0.07029147128274435,-58.45502280598113,58.45510007054706
53654626,3.0,0,9.217551231384277,-0.06530019640922546,-3.356346845626831,0.0007242760621011257,0.0007864156505092978,0.0008060368709266186,999,999,1.5034972429275513,70.11005401611328,359.82025146484375,9.809820536941238,-0.02064146698134328,0.022850867195772423,-9.809772206055722,-0.02064146698134328,0.022850867195772423,-19.616422206055724,19.616446375389373,-0.06439471869383719,0.07074529378243051,-58.8473431864841,58.84742094335337
53674626,3.02,0,9.21699333190918,-0.0638570636510849,-3.3564095497131348,0.0007287986227311194,0.0007636055815964937,0.000791533850133419,999,999,1.50336754322052,70.10997009277344,359.8196716308594,9.809308276858362,-0.020835539345018805,0.024288376854812485,-9.809256079106708,-0.020835539345018805,0.024288376854812485,-19.615906079106708,19.615932181501993,-0.06480948875710081,0.07121668622293637,-59.23966646933573,59.23974472838628
53694626,3.04,0,9.217497825622559,-0.06517031043767929,-3.3564698696136475,0.0007642187993042171,0.000781690061558038,0.0007800838793627918,999,999,1.50338876247406,70.10985565185547,359.81915283203125,9.809811584344695,-0.02073731698693848,0.022978280703114765,-9.809762753636987,-0.02073731698693848,0.022978280703114765,-19.616412753636986,19.616437172910672,-0.06522521732042039,0.07168935279851564,-59.63198965766317,59.63206842147878
53714626,3.06,0,9.217063903808594,-0.06587707996368408,-3.3560338020324707,0.0007936429465189576,0.0007650950574316084,0.0007858920143917203,999,999,1.5032885074615479,70.10977172851562,359.8185119628906,9.809259384731366,-0.02048017375175215,0.022253855053699034,-9.809212761754061,-0.02048017375175215,0.022253855053699034,-19.61586276175406,19.615886076329847,-0.06563739222780729,0.07214167415608377,-60.02431241281708,60.02439165305947
53734626,3.08,0,9.217098236083984,-0.06516863405704498,-3.3555877208709717,0.0007809348171576858,0.0007625619182363153,0.0007114303298294544,999,999,1.502995252609253,70.10966491699219,359.8176574707031,9.809134304154847,-0.020011022449837768,0.022931993731916275,-9.809087086961323,-0.020011022449837768,0.022931993731916275,-19.615737086961325,19.61576069853387,-0.0660423041898232,0.07259353264393993,-60.41662841130424,60.416708119497365
53754626,3.1,0,9.216070175170898,-0.06414264440536499,-3.3561103343963623,0.0007786804344505072,0.0007742609595879912,0.0007420229958370328,999,999,1.5029470920562744,70.10955810546875,359.81707763671875,9.80834034529532,-0.02080494179536041,0.023971259886795215,-9.808288987496457,-0.02080494179536041,0.023971259886795215,-19.61493898749646,19.614964668591995,-0.06645046383227518,0.07306256518012705,-60.80893517204882,60.809015372401895
53774626,3.12,0,9.21613597869873,-0.06493943184614182,-3.3557167053222656,0.0007829045644029975,0.0007910230779089034,0.0008288505487143993,999,999,1.502938985824585,70.10999298095703,359.8165588378906,9.808272738563739,-0.02050900271201428,0.02316318490775575,-9.808223945329008,-0.02050900271201428,0.02316318490775575,-19.61487394532901,19.614898343949534,-0.06686360327734893,0.07353390962807256,-61.20123330137707,61.20131400212657
53794626,3.14,0,9.21673583984375,-0.06512918323278427,-3.355182409286499,0.0007940884097479284,0.0007876238669268787,0.0007901939679868519,999,999,1.502854585647583,70.11041259765625,359.8159484863281,9.808654869631942,-0.019879643162313165,0.022952738446088333,-9.808607868762007,-0.019879643162313165,0.022952738446088333,-19.615257868762008,19.615281371584867,-0.0672674897360922,0.073995068861611,-61.59353461951798,61.59361579832078
53814626,3.16,0,9.216154098510742,-0.06438884884119034,-3.355041265487671,0.0007893182919360697,0.0007370134117081761,0.0007671452476643026,999,999,1.5026886463165283,70.11079406738281,359.81524658203125,9.808055066346057,-0.019989359482190938,0.0236800000626146,-9.80800611070268,-0.019989359482190938,0.0236800000626146,-19.61465611070268,19.614680590262523,-0.06766617976253725,0.07446139624669804,-61.98583375931263,61.9859154167183
53834626,3.18,0,9.216180801391602,-0.06454439461231232,-3.355300188064575,0.0007906677201390266,0.0008185558835975826,0.0007604554411955178,999,999,1.5025378465652466,70.11127471923828,359.8145751953125,9.808169752550228,-0.020310074134316736,0.02352373755453631,-9.808120514629767,-0.020310074134316736,0.02352373755453631,-19.614770514629768,19.614795135482023,-0.06806917409870232,0.07493343362286954,-62.37812802556595,62.378210173151274
53854626,3.2,0,9.216813087463379,-0.06581459194421768,-3.355766534805298,0.0007792830001562834,0.0007964590913616121,0.0008017063955776393,999,999,1.5025242567062378,70.11170959472656,359.8140563964844,9.808931852442862,-0.02064299764545119,0.022266667478989796,-9.808884857517484,-0.02064299764545119,0.022266667478989796,-19.61553485751748,19.615558357699527,-0.0684787048165,0.0753913376732048,-62.77043107928742,62.77051370720476
53874626,3.22,0,9.21740436553955,-0.06585606187582016,-3.3558735847473145,0.0007578797522000968,0.0007674347143620253,0.0008014722261577845,999,999,1.5024683475494385,70.11212921142578,359.8135070800781,9.809524339923835,-0.02061529052027744,0.022224851743993232,-9.809477500933466,-0.02061529052027744,0.022224851743993232,-19.616127500933466,19.61615092384631,-0.06889128769815728,0.07583625286543463,-63.16274770287193,63.16283079884421
53894626,3.24,0,9.21734619140625,-0.06426535546779633,-3.3555314540863037,0.0007637860253453255,0.0007546801934950054,0.0008434600895270705,999,999,1.502494215965271,70.11253356933594,359.81304931640625,9.809342087393388,-0.020338121396610287,0.023806825145708324,-9.809292114286423,-0.020338121396610287,0.023806825145708324,-19.615942114286423,19.615967104253134,-0.06930082181732615,0.07629656963433165,-63.55506839902413,63.555151978223435
53914626,3.26,0,9.21678352355957,-0.06533294171094894,-3.35579252243042,0.000799507659394294,0.000799351604655385,0.0007695224485360086,999,999,1.5023785829544067,70.11297607421875,359.8123779296875,9.808909744055743,-0.020880275130832793,0.022741686443419812,-9.808861156976372,-0.020880275130832793,0.022741686443419812,-19.61551115697637,19.61553545329967,-0.06971300578260058,0.07676205475022292,-63.94738293173675,63.947467003270745
53934626,3.28,0,9.21601390838623,-0.06471739709377289,-3.3549747467041016,0.0008338203188031912,0.0008154393872246146,0.0007647689199075103,999,999,1.5022732019424438,70.1134262084961,359.8116760253906,9.807902744831704,-0.020433038798651104,0.02332819689555593,-9.807853717212158,-0.020433038798651104,0.02332819689555593,-19.61450371721216,19.61452823257227,-0.07012613892189541,0.07722275358361268,-64.33968308047864,64.33976763966015
53954626,3.3,0,9.21733283996582,-0.06499898433685303,-3.3557071685791016,0.0007799958111718297,0.000773515785112977,0.0008101797429844737,999,999,1.5022497177124023,70.11383819580078,359.8111572265625,9.809394484468976,-0.020751042757471083,0.023065764804180433,-9.809345417337939,-0.020751042757471083,0.023065764804180433,-19.61599541733794,19.616019954320613,-0.07053797973745664,0.07768669320061004,-64.73198807182413,64.73207312113267
53974626,3.32,0,9.21701717376709,-0.06609177589416504,-3.3554136753082275,0.0007588699809275568,0.0007766719209030271,0.0007732030935585499,999,999,1.502073049545288,70.11425018310547,359.8104553222656,9.809004773003416,-0.02068344694969415,0.021955332005877445,-9.808958395019452,-0.02068344694969415,0.021955332005877445,-19.61560839501945,19.615631586781465,-0.07095232463452829,0.07813690416871062,-65.1243041099477,65.12438963562818
53994626,3.34,0,9.216080665588379,-0.06484217941761017,-3.3562192916870117,0.0007739707361906767,0.0007507072295993567,0.0007904426311142743,999,999,1.5020167827606201,70.11415100097656,359.80987548828125,9.808392084167293,-0.021707123372947112,0.023225934233950057,-9.80834056471988,-0.021707123372947112,0.023225934233950057,-19.61499056471988,19.61501632671449,-0.0713762303377547,0.07858871683110889,-65.51661009954509,65.5166961139562
54014626,3.36,0,9.215706825256348,-0.06494301557540894,-3.3207736015319824,0.0007957222405821085,0.0005629492807202041,0.0007669939659535885,999,999,1.501856803894043,70.11381530761719,359.8091735839844,9.795968925888861,0.01153789286987461,0.02207628832274705,-9.795937255388184,0.01153789286987461,0.02207628832274705,-19.602587255388183,19.60260308200381,-0.07147792264278542,0.07904173905667586,-65.90878587774617,65.90887203228812
54034626,3.38,0,9.21639633178711,-0.0647723376750946,-3.369711399078369,0.0007770424708724022,0.0007264827727340162,0.0007416900480166078,999,999,1.50165593624115,70.11380767822266,359.8084716796875,9.813312983563986,-0.0342206256490889,0.023670549500257737,-9.813224769017166,-0.0342206256490889,0.023670549500257737,-19.619874769017166,19.61991889121996,-0.07170474997057756,0.0794992074349059,-66.30101049799022,66.30109693473979
54054626,3.4,0,9.217327117919922,-0.06479974836111069,-3.3559391498565674,0.000784034316893667,0.0008379259379580617,0.0008022780530154705,999,999,1.5016303062438965,70.11378479003906,359.80792236328125,9.809467150853285,-0.020955373085002726,0.023236589646386904,-9.809417246549875,-0.020955373085002726,0.023236589646386904,-19.616067246549875,19.616092202269193,-0.07225650995791848,0.07996827882637235,-66.69336991814589,66.69345700267378
54074626,3.42,0,9.21585750579834,-0.06478096544742584,-3.355499505996704,0.0007835786091163754,0.0008179353317245841,0.0007524380343966186,999,999,1.501502513885498,70.1137466430664,359.8072509765625,9.807935719375818,-0.02103476438403762,0.023236873303922434,-9.807885636660655,-0.02103476438403762,0.023236873303922434,-19.614535636660655,19.614560679643695,-0.07267641133260888,0.08043301345587545,-67.085675946978,67.0857635314182
54094626,3.44,0,9.216880798339844,-0.0647215023636818,-3.3566551208496094,0.0008158331620506942,0.0008131981594488025,0.0007808989612385631,999,999,1.5014710426330566,70.11370086669922,359.806640625,9.809292233591567,-0.021763180994637477,0.023327436352260464,-9.809240353802432,-0.021763180994637477,0.023327436352260464,-19.61589035380243,19.61591629717391,-0.07310439078639563,0.08089865655243728,-67.47798020688263,67.47806830107861
54114626,3.46,0,9.217744827270508,-0.06501616537570953,-3.355855703353882,0.0007975430926308036,0.0007774315308779478,0.0007479769992642105,999,999,1.5013411045074463,70.11363983154297,359.8059387207031,9.809832531912313,-0.020715461866439355,0.023001032939004115,-9.809783694164135,-0.020715461866439355,0.023001032939004115,-19.616433694164137,19.616458116984692,-0.0735291772150064,0.08136194124534993,-67.8703034473623,67.87039204500313
54134626,3.48,0,9.216730117797852,-0.06459881365299225,-3.3555421829223633,0.0008258715970441699,0.0007939625065773726,0.0007876220624893904,999,999,1.5012696981430054,70.11360168457031,359.8052978515625,9.808769056941792,-0.020747478343611014,0.023406188156738048,-9.808719187789867,-0.020747478343611014,0.023406188156738048,-19.615369187789867,19.61539412504367,-0.07394380661710691,0.08182601345630736,-68.26262147618185,68.26271056721598
54154626,3.5,0,9.216876983642578,-0.0647616982460022,-3.3555831909179688,0.0007799785234965384,0.0008168236818164587,0.0007699794950895011,999,999,1.501172423362732,70.11357879638672,359.8046875,9.808922160988496,-0.02073652350967281,0.02323891947763726,-9.808872713494933,-0.02073652350967281,0.02323891947763726,-19.615522713494933,19.61554744009,-0.07435864663563975,0.08229246453265111,-68.6549303951947,68.65501998271559
54174626,3.52,0,9.216964721679688,-0.06455416977405548,-3.3562815189361572,0.0007859334582462907,0.0008140369318425655,0.0007528456044383347,999,999,1.5009843111038208,70.11353302001953,359.803955078125,9.809242149925526,-0.021349226579921332,0.02345601386472182,-9.809190872942251,-0.021349226579921332,0.02345601386472182,-19.61584087294225,19.615866514805145,-0.0747795041365357,0.0827594138660747,-69.04724403105907,69.04733412217624
54194626,3.54,0,9.217750549316406,-0.06481298804283142,-3.356760025024414,0.0008350771386176348,0.0008004735573194921,0.0008082481799647212,999,999,1.5010403394699097,70.11348724365234,359.8034362792969,9.810145961118206,-0.021530875218255474,0.023213917281854055,-9.810094867731943,-0.021530875218255474,0.023213917281854055,-19.616744867731942,19.61677041896119,-0.07520830515451747,0.08322611317754046,-69.43956988846581,69.43966049146702
54214626,3.56,0,9.216350555419922,-0.0648595318198204,-3.3554348945617676,0.0007909821579232812,0.0008331299759447575,0.000817776657640934,999,999,1.5011049509048462,70.11349487304688,359.802978515625,9.808377421923552,-0.020763925172258446,0.023133996932480888,-9.80832816174587,-0.020763925172258446,0.023133996932480888,-19.614978161745867,19.615002793988328,-0.07563125315842262,0.08368959231968381,-69.83188711876059,69.8319782234589
54234626,3.58,0,9.21745777130127,-0.06497865170240402,-3.35556960105896,0.0007901756325736642,0.0007749485084787011,0.000821988214738667,999,999,1.5011777877807617,70.1134262084961,359.8025207519531,9.809464681543545,-0.020505278410626104,0.023021987573316638,-9.809416234419645,-0.020505278410626104,0.023021987573316638,-19.616066234419645,19.61609046144244,-0.07604394519425146,0.0841511521647418,-70.22419756272225,70.2242891557206
54254626,3.6,0,9.216903686523438,-0.06485050916671753,-3.355961799621582,0.0007690007914789021,0.0008250423707067966,0.0008720606565475464,999,999,1.5013939142227173,70.11339569091797,359.80224609375,9.809077365160693,-0.02105334151646021,0.02317501309703246,-9.809027394766863,-0.02105334151646021,0.02317501309703246,-19.615677394766863,19.615702383039682,-0.07645953139352232,0.08461312217144529,-70.61651499901411,70.61660708393154
54274626,3.62,0,9.216747283935547,-0.06438657641410828,-3.355189085006714,0.0008367183618247509,0.0007738644490018487,0.0007471731514669955,999,999,1.501251220703125,70.11335754394531,359.801513671875,9.808663003860607,-0.020360451246293376,0.023608055552897286,-9.808613461394113,-0.020360451246293376,0.023608055552897286,-19.615263461394115,19.615288235153848,-0.07687366932114986,0.08508095285794459,-71.00882440757573,71.0089169898788
54294626,3.64,0,9.216663360595703,-0.06520996987819672,-3.3553924560546875,0.0007664952427148819,0.0008252369007095695,0.0008148738997988403,999,999,1.501251459121704,70.11334228515625,359.801025390625,9.808659152854048,-0.02060048703184192,0.02279128962517135,-9.808611041014867,-0.02060048703184192,0.02279128962517135,-19.61526104101487,19.615285099383705,-0.07728327870393122,0.08554494630972528,-71.40112965259982,71.40122272279639
54314626,3.66,0,9.216253280639648,-0.0648912787437439,-3.3576714992523193,0.0007591988542117178,0.0007852849084883928,0.0007481807842850685,999,999,1.5011060237884521,70.11328125,359.8003234863281,9.809051600835291,-0.02286255521759628,0.023169194226897907,-9.80899759403871,-0.02286255521759628,0.023169194226897907,-19.61564759403871,19.615674600724514,-0.0777179091264256,0.08600455114824598,-71.79343873895036,71.79353231886306
54334626,3.68,0,9.216075897216797,-0.06531760096549988,-3.3552184104919434,0.0007895695744082332,0.000775365624576807,0.0007994385669007897,999,999,1.5010844469070435,70.11323547363281,359.7998046875,9.808048323410747,-0.02062107807826008,0.022669865692188554,-9.808000446711283,-0.02062107807826008,0.022669865692188554,-19.61465044671128,19.61467438675296,-0.07815274545938415,0.08646294174743685,-72.18574171935786,72.18583580776605
54354626,3.7,0,9.216543197631836,-0.06431618332862854,-3.354759931564331,0.0007498987251892686,0.0007802441832609475,0.0007618640665896237,999,999,1.5009082555770874,70.1131820678711,359.7991027832031,9.80832397933924,-0.019993681221149195,0.023646671237810918,-9.80827509663813,-0.019993681221149195,0.023646671237810918,-19.61492509663813,19.61494954005933,-0.07855889305237825,0.08692610711673684,-72.57803747479136,72.57813204636776
54374626,3.72,0,9.216690063476562,-0.06502823531627655,-3.355435848236084,0.0008548422483727336,0.0007837891462258995,0.0007992691243998706,999,999,1.501039981842041,70.11311340332031,359.79864501953125,9.808697881431753,-0.020587067769302525,0.022962524817549027,-9.808649398581766,-0.020587067769302525,0.022962524817549027,-19.615299398581765,19.615323642522636,-0.07896470054228276,0.08739219907729044,-72.97033971974356,72.97043477762193
54394626,3.74,0,9.217430114746094,-0.0652371495962143,-3.3563480377197266,0.0007903258665464818,0.0007886065868660808,0.0008028310257941484,999,999,1.501050591468811,70.11308288574219,359.7981262207031,9.809706721213468,-0.02119318140358173,0.022780520287961792,-9.809657376951456,-0.02119318140358173,0.022780520287961792,-19.616307376951454,19.61633205291149,-0.0793825030340116,0.08784962952834555,-73.3626557874989,73.36275133427209
54414626,3.76,0,9.216890335083008,-0.06517153978347778,-3.355944871902466,0.000746808887924999,0.000791161204688251,0.0007767673814669251,999,999,1.5008747577667236,70.11304473876953,359.7974548339844,9.80906115598189,-0.020989297176744248,0.02282477466957636,-9.809012143985655,-0.020989297176744248,0.02282477466957636,-19.615662143985652,19.615686652980735,-0.07980432781981486,0.08830568247792092,-73.75497548270826,73.75507152107707
54434626,3.78,0,9.217058181762695,-0.06499481946229935,-3.356005907058716,0.0007981245289556682,0.0007747228373773396,0.0007861093035899103,999,999,1.5008578300476074,70.11344146728516,359.7969055175781,9.80923857905233,-0.021052304297219937,0.02300246779295098,-9.809189017840762,-0.021052304297219937,0.02300246779295098,-19.615839017840763,19.615863801701032,-0.08022474383455451,0.0887639549025462,-74.14729049432653,74.14738702543238
54454626,3.8,0,9.21691608428955,-0.06597266346216202,-3.3563461303710938,0.0007801387109793723,0.0007613148773089051,0.00077557418262586,999,999,1.5007537603378296,70.11383819580078,359.7962341308594,9.809227994292758,-0.021515702039423434,0.02202966249225284,-9.809179660529875,-0.021515702039423434,0.02202966249225284,-19.615829660529876,19.61585383057254,-0.08065042389792094,0.08921427620539824,-74.53960718111023,74.53970420113144
54474626,3.82,0,9.216758728027344,-0.06487364321947098,-3.3558602333068848,0.0008558757835999131,0.0007375924615189433,0.0007177195511758327,999,999,1.500585913658142,70.11418914794922,359.7954406738281,9.808906562188435,-0.02114139438387408,0.023104717068597944,-9.808856567369919,-0.02114139438387408,0.023104717068597944,-19.61550656736992,19.61553156763894,-0.08107699486215392,0.08966562000100674,-74.93192054338923,74.93201805452262
54494626,3.84,0,9.217324256896973,-0.0642574280500412,-3.35630202293396,0.0008068025344982743,0.0007317736162804067,0.0007954044849611819,999,999,1.5006409883499146,70.11457061767578,359.79498291015625,9.809585044383454,-0.021412007235652286,0.023736658761271984,-9.809532957280306,-0.021412007235652286,0.023736658761271984,-19.616182957280305,19.616209004711315,-0.08150252887834918,0.09013403375930544,-75.32423743863573,75.3243354601833
54514626,3.86,0,9.217268943786621,-0.06469711661338806,-3.3565518856048584,0.0007644249708391726,0.0007952501764521003,0.0007772467797622085,999,999,1.5004844665527344,70.11502838134766,359.7943115234375,9.809621453437893,-0.021756273495692202,0.02329597840436437,-9.80956966546967,-0.021756273495692202,0.02329597840436437,-19.61621966546967,19.616245563359094,-0.08193421168566262,0.0906043601309618,-75.71656146486323,75.71666000575786
54534626,3.88,0,9.217449188232422,-0.06522328406572342,-3.355513095855713,0.0008053465280681849,0.0008270432008430362,0.0008051328477449715,999,999,1.5005942583084106,70.11549377441406,359.7938537597656,9.809438911114643,-0.02081282794120698,0.0227459977267164,-9.80939045999651,-0.02081282794120698,0.0227459977267164,-19.616040459996512,19.616064688984885,-0.08235990270003161,0.09106477989227262,-76.1088840661179,76.108983108024
54554626,3.9,0,9.216371536254883,-0.06485778093338013,-3.35629940032959,0.0007842840277589858,0.0008488819003105164,0.0007469349657185376,999,999,1.5003843307495117,70.1159896850586,359.7931213378906,9.808692904291048,-0.02199286345266449,0.023124197799844842,-9.808640990276015,-0.02199286345266449,0.023124197799844842,-19.615290990276016,19.61531694996974,-0.08278795961397033,0.09152348184753822,-76.50119738062062,76.50129692405653
54574626,3.92,0,9.216466903686523,-0.065554678440094,-3.356844902038574,0.000775221677031368,0.0007135862251743674,0.0008025411516427994,999,999,1.5004197359085083,70.1163558959961,359.7926330566406,9.808973814775774,-0.022555334539076988,0.02244611652656006,-9.808922200104021,-0.022555334539076988,0.02244611652656006,-19.61557220010402,19.615598010480255,-0.08323344159388774,0.09197918499080228,-76.89350601252443,76.89360607277045
54594626,3.94,0,9.217269897460938,-0.06514906883239746,-3.356137275695801,0.0008474827045574784,0.0007653525099158287,0.0007632522028870881,999,999,1.500339388847351,70.11677551269531,359.79193115234375,9.809483481668344,-0.02167724075867783,0.022825442256988432,-9.809432974109308,-0.02167724075867783,0.022825442256988432,-19.616082974109307,19.616108231520396,-0.08367576734686528,0.09243190057863776,-77.28582256426655,77.28592313433009
54614626,3.96,0,9.216472625732422,-0.06543464958667755,-3.3573403358459473,0.000782633840572089,0.0008080264087766409,0.0007490349235013127,999,999,1.5001952648162842,70.11722564697266,359.7912292480469,9.809147948978024,-0.023164166359710414,0.022568695199544297,-9.809094635099289,-0.023164166359710414,0.022568695199544297,-19.61574463509929,19.615771295415144,-0.08412418141804917,0.09288584195320308,-77.67814084035864,77.678241928304
54634626,3.98,0,9.217326164245605,-0.06580792367458344,-3.3568506240844727,0.000793133513070643,0.000752857478801161,0.0007865349180065095,999,999,1.5001739263534546,70.11760711669922,359.7906799316406,9.809784830123506,-0.02248923088305954,0.02217923235562437,-9.809733978527024,-0.02248923088305954,0.02217923235562437,-19.616383978527026,19.616409408371997,-0.08458071539047687,0.09333332122875478,-78.0704621264949,78.07056373339918
54654626,4.0,0,9.216398239135742,-0.06531195342540741,-3.3378868103027344,0.0007844288484193385,0.0005511984927579761,0.0008147108601406217,999,999,1.5001415014266968,70.1173095703125,359.7901306152344,9.802435947865082,-0.004914300613976685,0.022112511652977257,-9.802409775074468,-0.004914300613976685,0.022112511652977257,-19.609059775074467,19.6090728586531,-0.08485475070544723,0.09377623866884079,-78.46271656403091,78.4628184869694
54674626,4.02,0,9.216085433959961,-0.0648016408085823,-3.368189811706543,0.0007981863454915583,0.0007594201597385108,0.0008057543309405446,999,999,1.5002450942993164,70.11726379394531,359.7896728515625,9.812498794210587,-0.033481965434357885,0.02352697335166673,-9.812413465906323,-0.033481965434357885,0.02352697335166673,-19.619063465906322,19.619106142730985,-0.08523871336593057,0.09423263351888722,-78.85499779644071,78.85510017052889
54694626,4.04,0,9.216378211975098,-0.06597034633159637,-3.3552300930023193,0.0008172018569894135,0.0007998523069545627,0.0008125979802571237,999,999,1.500205159187317,70.11717987060547,359.7890930175781,9.808340757220497,-0.021219197253647515,0.021972217914435488,-9.808293193877342,-0.021219197253647515,0.021972217914435488,-19.61494319387734,19.614966977584416,-0.08578572499281063,0.09468762543154825,-79.24733786303855,79.24744086287964
54714626,4.06,0,9.218076705932617,-0.0653165727853775,-3.355642318725586,0.0008032796904444695,0.0008077078382484615,0.0007997080683708191,999,999,1.5002344846725464,70.1171646118164,359.78857421875,9.81007338312818,-0.02100768906975281,0.022637694364625066,-9.810024770312957,-0.02100768906975281,0.022637694364625066,-19.616674770312954,19.61669908094731,-0.08620799385604462,0.09513372455433886,-79.63965404268045,79.63975752274476
54734626,4.08,0,9.216391563415527,-0.06506343185901642,-3.355144739151001,0.0008121714345179498,0.0008173639653250575,0.0007163098780438304,999,999,1.499990463256836,70.11712646484375,359.7877502441406,9.808318047505129,-0.021099210110984146,0.022864073429591764,-9.808268704439827,-0.021099210110984146,0.022864073429591764,-19.614918704439827,19.61494337805502,-0.086629062847852,0.09558874223228103,-80.03196997742799,80.03207394707516
54754626,4.1,0,9.216265678405762,-0.06439891457557678,-3.3562495708465576,0.0008512120693922043,0.0008052883786149323,0.0007851432892493904,999,999,1.5000206232070923,70.11708068847656,359.78717041015625,9.80857336501931,-0.022153613519831694,0.023563186778497364,-9.80852004384979,-0.022153613519831694,0.023563186778497364,-19.615170043849787,19.615196707030627,-0.08706159108416016,0.09605301483436192,-80.42427086491088,80.42437534761991
54774626,4.12,0,9.218107223510742,-0.06431368738412857,-3.3569390773773193,0.0008584472816437483,0.0008823889074847102,0.00079715735046193,999,999,1.5000522136688232,70.11711883544922,359.78662109375,9.810539078141872,-0.022179291980358062,0.02366859495200968,-9.810485455897124,-0.022179291980358062,0.02366859495200968,-19.617135455897124,19.61716227231645,-0.08750492013916207,0.096525332651667,-80.81659391990836,80.816698936954
54794626,4.14,0,9.217522621154785,-0.06540156900882721,-3.3553497791290283,0.0008531154599040747,0.0008036450017243624,0.0008255736902356148,999,999,1.500211477279663,70.11707305908203,359.78619384765625,9.809453235376079,-0.020906962651451533,0.022544220435483514,-9.809405049954247,-0.020906962651451533,0.022544220435483514,-19.616055049954248,19.616079146093337,-0.08793578268548016,0.09698746080554192,-81.20892582496687,81.20903135067184
54814626,4.16,0,9.216438293457031,-0.06460492312908173,-3.3556671142578125,0.000756126013584435,0.0007767024799250066,0.0008407308487221599,999,999,1.5002843141555786,70.11699676513672,359.7857971191406,9.80853762774579,-0.02153817128549207,0.023355678654931766,-9.808486173429479,-0.02153817128549207,0.023355678654931766,-19.615136173429477,19.615161903046566,-0.0883602340248496,0.09744645979644609,-81.60123773720072,81.60134376091263
54834626,4.18,0,9.216606140136719,-0.06519783288240433,-3.3561911582946777,0.0007660641567781568,0.0008153465460054576,0.0007735230028629303,999,999,1.500097632408142,70.11695861816406,359.7850646972656,9.808878559286674,-0.021983771218130332,0.022767699527560276,-9.80882750059838,-0.021983771218130332,0.022767699527560276,-19.61547750059838,19.615503032826357,-0.08879545344988582,0.097907693578271,-81.993543873941,81.99365040999761
54854626,4.2,0,9.216449737548828,-0.06539645791053772,-3.3555092811584473,0.0007420900510624051,0.0008072687778621912,0.0008072965429164469,999,999,1.5000823736190796,70.1169204711914,359.7845764160156,9.808499630290639,-0.02139494623238969,0.022548370808654808,-9.80845037835545,-0.02139494623238969,0.022548370808654808,-19.61510037835545,19.615125006629718,-0.08922924062439103,0.09836085428163317,-82.38584965273054,82.38595668994418
54874626,4.22,0,9.215861320495605,-0.06476076692342758,-3.3549857139587402,0.0008054313366301358,0.0007522645173594356,0.0007682511932216585,999,999,1.5000174045562744,70.11676025390625,359.783935546875,9.807763403366067,-0.02105724966263356,0.023165304054842933,-9.807713440824596,-0.02105724966263356,0.023165304054842933,-19.614363440824597,19.614388423497477,-0.08965376258334125,0.09881799103026814,-82.77814429092233,82.7782518240223
54894626,4.24,0,9.217608451843262,-0.06332489103078842,-3.356565475463867,0.0007764016045257449,0.0008000959642231464,0.0008116595563478768,999,999,1.5000641345977783,70.11673736572266,359.7834777832031,9.809936156998798,-0.02190305521813718,0.02464815555323313,-9.809880739794561,-0.02190305521813718,0.02464815555323313,-19.616530739794563,19.616558453018843,-0.09008336563214897,0.09929612562634892,-83.17045323272853,83.17056129226742
54914626,4.26,0,9.216318130493164,-0.0645083338022232,-3.3562517166137695,0.0008031576289795339,0.0007967331330291927,0.0008458022493869066,999,999,1.50022292137146,70.11665344238281,359.7830810546875,9.808624102944298,-0.02206595447889237,0.023466968167445285,-9.808571210319972,-0.02206595447889237,0.023466968167445285,-19.615221210319973,19.615247659275898,-0.09052305572911926,0.09977727686355568,-83.56277075222967,83.56287935272628
54934626,4.28,0,9.216361999511719,-0.06450529396533966,-3.3553895950317383,0.0007781023741699755,0.0008241927134804428,0.0008194590336643159,999,999,1.500231385231018,70.11661529541016,359.7825927734375,9.808370342388201,-0.021233854168023925,0.023444962915450687,-9.808319337714872,-0.021233854168023925,0.023444962915450687,-19.61496933771487,19.614994842271653,-0.09095605381558843,0.10024639617438465,-83.95507265771002,83.9551817775713
54954626,4.3,0,9.217048645019531,-0.06503751128911972,-3.355264186859131,0.0007815356948412955,0.0008054353529587388,0.0008356890175491571,999,999,1.5003618001937866,70.11653900146484,359.7822265625,9.808976162992268,-0.02088428095279493,0.02291608691617275,-9.808927161821526,-0.02088428095279493,0.02291608691617275,-19.615577161821527,19.61560166529706,-0.0913772351667966,0.10071000667270087,-84.34737812270538,84.34748774254743
54974626,4.32,0,9.216368675231934,-0.06431291252374649,-3.3557944297790527,0.0007953854510560632,0.0008182821329683065,0.0008154026581905782,999,999,1.5003879070281982,70.1164779663086,359.7817077636719,9.808513850907783,-0.02158267536682601,0.023658706159063583,-9.808461572397412,-0.02158267536682601,0.023658706159063583,-19.61511157239741,19.61513771411896,-0.09180190472999282,0.10117575460345325,-84.73968501004758,84.73979513619982
54994626,4.34,0,9.216251373291016,-0.0651170015335083,-3.3559131622314453,0.0007755348924547434,0.0008122377912513912,0.0007676184759475291,999,999,1.5003200769424438,70.11639404296875,359.7811279296875,9.808449559028965,-0.021742477735053445,0.022854852021005595,-9.80839883326614,-0.021742477735053445,0.022854852021005595,-19.615048833266137,19.615074198458036,-0.0922351562610116,0.10164089018525393,-85.1319866141042,85.13209725514007
55014626,4.36,0,9.217415809631348,-0.0654188022017479,-3.3555948734283447,0.0007960524526424706,0.000811158970464021,0.0007101324154064059,999,999,1.4999808073043823,70.11634826660156,359.7802429199219,9.80943682287123,-0.021047865250973352,0.02252261872990284,-9.809388385669921,-0.021047865250973352,0.02252261872990284,-19.61603838566992,19.616062607696325,-0.09266305969087188,0.10209466489276303,-85.52429748629358,85.52440862284446
55034626,4.38,0,9.216163635253906,-0.06409500539302826,-3.3557534217834473,0.000762052892241627,0.0008230957901105285,0.0006981914048083127,999,999,1.4997291564941406,70.1163101196289,359.77947998046875,9.80830573286254,-0.021578414075274388,0.023837704066934973,-9.808253029220594,-0.021578414075274388,0.023837704066934973,-19.614903029220592,19.61492938324827,-0.09308932248413435,0.1025582681207314,-85.91660690044247,85.91671854246692
55054626,4.4,0,9.21641731262207,-0.06452032178640366,-3.3565139770507812,0.0007626799633726478,0.0008143956074491143,0.000843724817968905,999,999,1.4998490810394287,70.11624908447266,359.77911376953125,9.808807115570195,-0.02220845638631852,0.023442029855997137,-9.80875396195468,-0.02220845638631852,0.023442029855997137,-19.61540396195468,19.61543054166709,-0.09352719118875029,0.10303106545996074,-86.30890997035424,86.30902214141146
55074626,4.42,0,9.218582153320312,-0.0656651183962822,-3.355893850326538,0.0008020263630896807,0.0008039918611757457,0.0008120688144117594,999,999,1.4998607635498047,70.11618041992188,359.778564453125,9.810636694932152,-0.020909892736443947,0.022277264883603265,-9.81058911889619,-0.020909892736443947,0.022277264883603265,-19.617239118896187,19.617262911734038,-0.0939583746799779,0.10348825840735673,-86.70123640116273,86.70134907535237
55094626,4.44,0,9.217550277709961,-0.065031036734581,-3.3560824394226074,0.0008230488165281713,0.000822935369797051,0.0007506989641115069,999,999,1.4997471570968628,70.11614227294922,359.7779235839844,9.809727391627687,-0.02141333440903903,0.0229116009004465,-9.809677264095093,-0.02141333440903903,0.0229116009004465,-19.61632726409509,19.61635233177735,-0.09438160695143274,0.10394014706519723,-87.09357206499266,87.09368522735717
55114626,4.46,0,9.217146873474121,-0.06442622095346451,-3.356538772583008,0.0008158720447681844,0.000816446088720113,0.0007389941019937396,999,999,1.499647617340088,70.1160888671875,359.7772216796875,9.809500484580912,-0.021952869081410142,0.023524686526276095,-9.809447712162804,-0.021952869081410142,0.023524686526276095,-19.616097712162805,19.61612410218838,-0.09481526898633723,0.10440450993946444,-87.48589631475522,87.48600999150109
55134626,4.48,0,9.216524124145508,-0.06502006947994232,-3.355412006378174,0.0008181040175259113,0.00080763956066221,0.0008211385575123131,999,999,1.4997684955596924,70.1159896850586,359.77679443359375,9.808533747351747,-0.0211052677999648,0.02290549089692616,-9.80848429570522,-0.0211052677999648,0.02290549089692616,-19.615134295705218,19.615159023887447,-0.09524585035515098,0.10486881171369648,-87.87820863483391,87.87832282256574
55154626,4.5,0,9.21692943572998,-0.06409623473882675,-3.3563785552978516,0.0007922581280581653,0.0008146237232722342,0.0008384317043237388,999,999,1.4998908042907715,70.1159439086914,359.7763671875,9.809239193586665,-0.021841498818382377,0.023864511458290633,-9.809185847511454,-0.021841498818382377,0.023864511458290633,-19.615835847511455,19.615862524051632,-0.09567531802133444,0.10533651173724864,-88.27051833626606,88.2706330378358
55174626,4.52,0,9.217041015625,-0.06430170685052872,-3.3558406829833984,0.0008702248451299965,0.0007943190285004675,0.0007892498397268355,999,999,1.499965786933899,70.11587524414062,359.77581787109375,9.809161354712435,-0.02129180606571479,0.023647481229647424,-9.809109742398126,-0.02129180606571479,0.023647481229647424,-19.615759742398126,19.615785551842194,-0.09610665107017541,0.10581163166412802,-88.66283429216516,88.66294951844155
55194626,4.54,0,9.217229843139648,-0.06504905223846436,-3.3565151691436768,0.0007803195621818304,0.0007525096880272031,0.000842713809106499,999,999,1.5001124143600464,70.1157455444336,359.7754821777344,9.809574478087868,-0.021860457424403013,0.022928986761088704,-9.809523322930639,-0.021860457424403013,0.022928986761088704,-19.61617332293064,19.616198904305808,-0.0965381737050766,0.1062773963440354,-89.05515362281845,89.05526936283866
55214626,4.56,0,9.217988014221191,-0.06580335646867752,-3.355846405029297,0.0008370962459594011,0.0008192021632567048,0.0008101121638901532,999,999,1.5002011060714722,70.11571502685547,359.77496337890625,9.810063109185187,-0.020990030867693577,0.02215940325909585,-9.810015626167345,-0.020990030867693577,0.02215940325909585,-19.616665626167347,19.61668937179269,-0.09696667858799755,0.10672828024423724,-89.44748201230942,89.44759824503383
55234626,4.58,0,9.216836929321289,-0.06611260771751404,-3.3556365966796875,0.000832408550195396,0.0007749093347229064,0.0007953998283483088,999,999,1.500218152999878,70.11558532714844,359.7744445800781,9.808911806493926,-0.021170743510448453,0.021846663521963613,-9.808864631061441,-0.021170743510448453,0.021846663521963613,-19.61551463106144,19.615538221483327,-0.09738828633177898,0.10716834091204784,-89.83980381488172,89.83992051993393
55254626,4.6,0,9.216998100280762,-0.06570488214492798,-3.355876922607422,0.0007600251701660454,0.0007407902739942074,0.0007686387980356812,999,999,1.50009286403656,70.11544036865234,359.7738037109375,9.80914272665078,-0.021305185854522346,0.02225397338754137,-9.80909434563304,-0.021305185854522346,0.02225397338754137,-19.61574434563304,19.615768539201067,-0.09781304562542868,0.10760934728114288,-90.23211640464865,90.23223358659355
55274626,4.62,0,9.216533660888672,-0.06467185914516449,-3.3555877208709717,0.0008331755525432527,0.0007648537866771221,0.0007680720882490277,999,999,1.5000277757644653,70.11534881591797,359.7731628417969,9.808600518122821,-0.021145917519590274,0.02327487562167034,-9.808550109697983,-0.021145917519590274,0.02327487562167034,-19.61520010969798,19.615225316400487,-0.09823755665916982,0.10806463577123501,-90.62442584920197,90.62454352481203
55294626,4.64,0,9.216872215270996,-0.06339254975318909,-3.3566055297851562,0.000834885286167264,0.0008068294264376163,0.0008265314972959459,999,999,1.5002002716064453,70.11527252197266,359.7727355957031,9.8092585209374,-0.021937542479908867,0.02459380595826717,-9.80920315925414,-0.021937542479908867,0.02459380595826717,-19.61585315925414,19.61588084375724,-0.0986683912591648,0.10854332258703438,-91.01673638189148,91.01685458592293
55314626,4.66,0,9.217123985290527,-0.06543879956007004,-3.374394416809082,0.0007621400873176754,0.00065291189821437,0.0008284203358925879,999,999,1.5002135038375854,70.11495971679688,359.7722473144531,9.815609735360209,-0.03857718789696296,0.02308107672274222,-9.815506789838688,-0.03857718789696296,0.02308107672274222,-19.622156789838687,19.622208286035015,-0.09927353856293353,0.10902007141384448,-91.40911648138241,91.40923540057847
55334626,4.68,0,9.216038703918457,-0.06581156700849533,-3.3567543029785156,0.0008427350549027324,0.0008736229501664639,0.0008100895211100578,999,999,1.5003186464309692,70.1149673461914,359.77178955078125,9.808542195710833,-0.02237734697919347,0.022188545651416314,-9.808491572501042,-0.02237734697919347,0.022188545651416314,-19.61514157250104,19.615166886531316,-0.09988308391169508,0.10947276763758605,-91.8014894650058,91.80160907582653
55354626,4.7,0,9.216668128967285,-0.06510940194129944,-3.3555870056152344,0.0007713767699897289,0.0008709613466635346,0.0008066880400292575,999,999,1.5003424882888794,70.1149673461914,359.77130126953125,9.808729519463583,-0.021045773820352665,0.02285618553566647,-9.808680311651683,-0.021045773820352665,0.02285618553566647,-19.615330311651682,19.615354918150583,-0.10031731511969055,0.1099232149494569,-92.19379418384733,92.19391429313814
55374626,4.72,0,9.21744441986084,-0.06372490525245667,-3.3556838035583496,0.0008014807244762778,0.0008256200235337019,0.0008194674737751484,999,999,1.5004510879516602,70.11492156982422,359.7708740234375,9.809482977519101,-0.020825018212572655,0.024248389393364392,-9.809430901967009,-0.020825018212572655,0.024248389393364392,-19.61608090196701,19.616106943486177,-0.1007360230400198,0.11039426069874719,-92.58610829598351,92.58622891140301
55394626,4.74,0,9.2170991897583,-0.06484165042638779,-3.35650897026062,0.0007903676014393568,0.0008276343578472733,0.0007984712719917297,999,999,1.5004606246948242,70.11487579345703,359.7703552246094,9.809448220002649,-0.02174196060843192,0.023158048577354123,-9.809396789448785,-0.02174196060843192,0.023158048577354123,-19.616046789448784,19.61607250837713,-0.10116169282822986,0.11086832507845439,-92.97842957289767,92.9785507056111
55414626,4.76,0,9.217070579528809,-0.06532838195562363,-3.3552465438842773,0.0008421314414590597,0.0007850414258427918,0.000807503645773977,999,999,1.5005700588226318,70.11481475830078,359.7698669433594,9.808992671816604,-0.020568311959859198,0.02264030472988278,-9.808944978788327,-0.020568311959859198,0.02264030472988278,-19.615594978788327,19.615618828135933,-0.10158479555391275,0.11132630861152674,-93.37074599058003,93.3708676186266
55434626,4.78,0,9.216571807861328,-0.06531522423028946,-3.3557586669921875,0.0007977364002726972,0.0008056836668401957,0.0008390034781768918,999,999,1.500647783279419,70.11474609375,359.7694091796875,9.808699108397283,-0.021206966517946846,0.02267415749508639,-9.808649975721769,-0.021206966517946846,0.02267415749508639,-19.61529997572177,19.615324544610456,-0.10200254833869082,0.11177945323377644,-93.76305494012514,93.76317705192673
55454626,4.8,0,9.217443466186523,-0.06514501571655273,-3.355358123779297,0.000811789243016392,0.0007764734327793121,0.0007811114192008972,999,999,1.5006272792816162,70.11461639404297,359.768798828125,9.809380004069016,-0.020506686324301082,0.022830019524113065,-9.809332002244272,-0.020506686324301082,0.022830019524113065,-19.615982002244273,19.616006006482223,-0.1024196848671133,0.11223449500396843,-94.15536775990479,94.15549035705054
55474626,4.82,0,9.216266632080078,-0.0647343248128891,-3.354964017868042,0.0008016683859750628,0.0008232651744037867,0.0008437809301540256,999,999,1.500784993171692,70.11457824707031,359.7684631347656,9.808136659304402,-0.02051800161316697,0.023239654993224834,-9.80808766567859,-0.02051800161316697,0.023239654993224834,-19.61473766567859,19.614762164332884,-0.10282993174648798,0.11269519174914182,-94.54767495658403,94.54779803833073
55494626,4.84,0,9.21745491027832,-0.06517534703016281,-3.355363607406616,0.000814057479146868,0.0008084001601673663,0.0008299057371914387,999,999,1.5008447170257568,70.11450958251953,359.7679748535156,9.809392834767255,-0.02049007022809457,0.022812806751156087,-9.809344907773065,-0.02049007022809457,0.022812806751156087,-19.615994907773064,19.61601887460625,-0.10324001246490058,0.11315571636658561,-94.93998228231854,94.94010584828352
55514626,4.86,0,9.217086791992188,-0.06555885821580887,-3.3555338382720947,0.0007955725304782391,0.0008125595632009208,0.0007342821336351335,999,999,1.5007030963897705,70.11445617675781,359.76727294921875,9.809107718584624,-0.020776954033014494,0.02242700457907079,-9.80906007640096,-0.020776954033014494,0.02242700457907079,-19.61571007640096,19.61573390046295,-0.10365268270751168,0.11360811447988789,-95.33229933216029,95.33242337546505
55534626,4.88,0,9.215071678161621,-0.06431958079338074,-3.3560054302215576,0.0007810276583768427,0.0008529456099495292,0.0007661697454750538,999,999,1.5005978345870972,70.11447143554688,359.7666320800781,9.80736740872934,-0.021872501218182183,0.02367674701564619,-9.8073144384764,-0.021872501218182183,0.02367674701564619,-19.6139644384764,19.61399092455372,-0.10407917726002364,0.11406915199583505,-95.72459607730906,95.72472062330894
55554626,4.9,0,9.216388702392578,-0.06473052501678467,-3.3560969829559326,0.000851826393045485,0.0008240703027695417,0.0008039305685088038,999,999,1.5006818771362305,70.11444854736328,359.76611328125,9.808638932770663,-0.021518195446998956,0.023272014081777495,-9.808587721690095,-0.021518195446998956,0.023272014081777495,-19.615237721690093,19.615263329809995,-0.10451308422667546,0.1145386396068093,-96.11688809891074,96.1170131657412
55574626,4.92,0,9.216279983520508,-0.06412407755851746,-3.356285810470581,0.0008145329775288701,0.0008170632645487785,0.0008039241074584424,999,999,1.5007123947143555,70.1144027709961,359.7655944824219,9.808597406027513,-0.021707179227547613,0.023885960656278224,-9.808544302432606,-0.021707179227547613,0.023885960656278224,-19.615194302432606,19.61522085684816,-0.10494533797342091,0.11501021935418984,-96.50919241915196,96.50931800749302
55594626,4.94,0,9.217544555664062,-0.06502870470285416,-3.3557851314544678,0.0008021234534680843,0.0007958950009196997,0.0008114359807223082,999,999,1.5007655620574951,70.1143569946289,359.7651062011719,9.80962028911305,-0.0208243537175421,0.02296820465206635,-9.809571296669684,-0.0208243537175421,0.02296820465206635,-19.616221296669686,19.61624579658529,-0.10537065330287182,0.11547876100727329,-96.90150657514299,96.9016326738167
55614626,4.96,0,9.217695236206055,-0.06513109803199768,-3.355515480041504,0.0007948735728859901,0.0008286210941150784,0.0008109513437375426,999,999,1.5007812976837158,70.11432647705078,359.76458740234375,9.809670313741682,-0.02051714603733723,0.022858632157660777,-9.809622224834103,-0.02051714603733723,0.022858632157660777,-19.616272224834102,19.616296272975273,-0.1057840683004206,0.11593702937537055,-97.29383151035802,97.29395809416853
55634626,4.98,0,9.217156410217285,-0.06553924083709717,-3.355879068374634,0.000807014002930373,0.0008603730238974094,0.0008063873392529786,999,999,1.5009253025054932,70.11431884765625,359.7641906738281,9.809291106091923,-0.021052351658858548,0.022470930038829107,-9.809242777087684,-0.021052351658858548,0.022470930038829107,-19.615892777087684,19.615916944828452,-0.10619976327738256,0.11639032499733545,-97.68615316037724,97.68628022588511
55654626,5.0,0,9.217595100402832,-0.0646636039018631,-3.3552839756011963,0.000843897694721818,0.0007645318983122706,0.00078233313979581,999,999,1.5008763074874878,70.11422729492188,359.7635498046875,9.80949394074771,-0.02030271127755201,0.023324959725458505,-9.809445199384859,-0.02030271127755201,0.023324959725458505,-19.61609519938486,19.616119573584403,-0.10661331390674667,0.11684828389497832,-98.07847304014196,98.07860059057737
55674626,5.02,0,9.21762466430664,-0.06472945213317871,-3.355868339538574,0.0007681933930143714,0.000789803103543818,0.0007951013394631445,999,999,1.500877857208252,70.11416625976562,359.7630615234375,9.80972204837247,-0.0208331631663472,0.02327689769965756,-9.809672310106537,-0.0208331631663472,0.02327689769965756,-19.616322310106536,19.616347183118407,-0.10702467265118565,0.11731430246922947,-98.47079721523686,98.47092525781618
55694626,5.04,0,9.217130661010742,-0.06450759619474411,-3.355212688446045,0.0008064756984822452,0.0008216126589104533,0.0008393520256504416,999,999,1.5010095834732056,70.1141586303711,359.76263427734375,9.809032115189575,-0.020376981935552152,0.023487487606807828,-9.808982829700211,-0.020376981935552152,0.023487487606807828,-19.61563282970021,19.615657475422015,-0.10743677410220465,0.11778194632229413,-98.86311676663493,98.86324530410987
55714626,5.06,0,9.21713638305664,-0.06425578147172928,-3.357451915740967,0.0008570288773626089,0.0007648488390259445,0.0008168073836714029,999,999,1.5011242628097534,70.1140365600586,359.76214599609375,9.809801999828114,-0.02245133826837087,0.023813381229585734,-9.809747404297221,-0.02245133826837087,0.023813381229585734,-19.61639740429722,19.616424706429925,-0.10786505730424387,0.11825495501065807,-99.2554370689749,99.2555661253222
55734626,5.08,0,9.217107772827148,-0.06525532901287079,-3.3556036949157715,0.0008256506407633424,0.0008083531865850091,0.0007717246189713478,999,999,1.5010231733322144,70.11402130126953,359.761474609375,9.809149306194069,-0.02074982264119285,0.022753009835096913,-9.809100970864323,-0.02074982264119285,0.022753009835096913,-19.615750970864323,19.615775141593584,-0.10829706891333951,0.11872061892130491,-99.64775855272653,99.64788812324612
55754626,5.1,0,9.217390060424805,-0.06626592576503754,-3.355783462524414,0.0008646026835776865,0.0008273946586996317,0.0007838921737857163,999,999,1.5010530948638916,70.11397552490234,359.7608947753906,9.809482827666697,-0.020843796906150125,0.021749816012383544,-9.809436570360287,-0.020843796906150125,0.021749816012383544,-19.616086570360288,19.616109702339944,-0.10871300510881293,0.1191656471797797,-100.04007692813877,100.04020697078185
55774626,5.12,0,9.217388153076172,-0.06405790895223618,-3.3569459915161133,0.0008596430416218936,0.0008923191344365478,0.0008198736468330026,999,999,1.5012359619140625,70.11402130126953,359.7604675292969,9.80986412597669,-0.021881083081092267,0.024002756057577096,-9.809810357801481,-0.021881083081092267,0.024002756057577096,-19.61646035780148,19.61648724627557,-0.10914025390868537,0.11962317290047932,-100.4324023974204,100.4325329393613
55794626,5.14,0,9.216036796569824,-0.06527166068553925,-3.3565781116485596,0.0008087169262580574,0.0008170519722625613,0.0008559409179724753,999,999,1.5014344453811646,70.11397552490234,359.7601318359375,9.808476499692286,-0.02202184274614849,0.022792120249339437,-9.808425296790125,-0.02202184274614849,0.022792120249339437,-19.615075296790124,19.61510090060843,-0.10957928316695777,0.12009112166354848,-100.82471775396631,100.82484882043599
55814626,5.16,0,9.215909957885742,-0.06526888906955719,-3.356632709503174,0.0008279440808109939,0.0008168005733750761,0.0008304993389174342,999,999,1.5015170574188232,70.11392211914062,359.7596435546875,9.808375988217652,-0.02210683716813744,0.022801707178237693,-9.808324571309045,-0.02210683716813744,0.022801707178237693,-19.614974571309045,19.615000282008673,-0.11002056996610064,0.12054705993782426,-101.2170182526473,101.21714983181563
55834626,5.18,0,9.216772079467773,-0.06487318873405457,-3.3564767837524414,0.0008233529515564442,0.0007841907208785415,0.0007883146754465997,999,999,1.5015190839767456,70.11385345458984,359.75909423828125,9.809130058029732,-0.021643640269951803,0.02319157335126519,-9.809078764038127,-0.021643640269951803,0.02319157335126519,-19.615728764038124,19.61575441425976,-0.11045807474048153,0.12100699274311928,-101.60932528600077,101.60945737850824
55854626,5.2,0,9.21731185913086,-0.06412134319543839,-3.3562984466552734,0.0008280291222035885,0.0007661842391826212,0.0008023825939744711,999,999,1.5015838146209717,70.1137466430664,359.7585754394531,9.809571281057504,-0.021252179377472036,0.023940834134788508,-9.809519045268264,-0.021252179377472036,0.023940834134788508,-19.616169045268265,19.616195167035023,-0.11088703293695577,0.12147831681797983,-102.00164426409384,102.00177687420097
55874626,5.22,0,9.216536521911621,-0.06568889319896698,-3.355867624282837,0.0008187481435015798,0.0008051668992266059,0.0008385531837120652,999,999,1.50172758102417,70.11370849609375,359.7581481933594,9.808705725126542,-0.021149413729747657,0.022370666320723404,-9.808657413617698,-0.021149413729747657,0.022370666320723404,-19.6153074136177,19.61533157188882,-0.11131104886802796,0.12194143182253493,-102.39395902868269,102.39409214124585
55894626,5.24,0,9.216211318969727,-0.06533102691173553,-3.3566722869873047,0.0007863270584493876,0.0007987738354131579,0.0008147910120896995,999,999,1.5017939805984497,70.11363983154297,359.7576904296875,9.808673104004008,-0.02199404958329687,0.02275713344863696,-9.808622045724455,-0.02199404958329687,0.02275713344863696,-19.615272045724453,19.61529757748067,-0.11174248350115842,0.12239270982022854,-102.78626482327611,102.78639843227647
55914626,5.26,0,9.217048645019531,-0.06560803949832916,-3.3560683727264404,0.0008229941595345736,0.0007967715500853956,0.0008238630252890289,999,999,1.5019038915634155,70.11357116699219,359.7572326660156,9.809255071712524,-0.021137591238616693,0.022467372548633915,-9.809206567369518,-0.021137591238616693,0.022467372548633915,-19.61585656736952,19.61588082274682,-0.11217379990937755,0.12284495488020124,-103.17857610940705,103.17871021586299
55934626,5.28,0,9.21740436553955,-0.06467688083648682,-3.3566842079162598,0.0008118586265482008,0.0007972980383783579,0.0008240736788138747,999,999,1.5020300149917603,70.11351013183594,359.7568359375,9.809793841282126,-0.021557845205428805,0.023423681806239924,-9.809742188197275,-0.021557845205428805,0.023423681806239924,-19.616392188197274,19.61641801886181,-0.11260075427381802,0.12330386542374999,-103.57089859696272,103.57103320405481
55954626,5.3,0,9.218226432800293,-0.06538441777229309,-3.3562185764312744,0.0008157350239343941,0.0007974047330208123,0.0008087625028565526,999,999,1.502012848854065,70.11343383789062,359.7562561035156,9.810411654015738,-0.02084771580502265,0.022700368618820216,-9.810363239312705,-0.02084771580502265,0.022700368618820216,-19.617013239312705,19.61703745129115,-0.11302480988392252,0.12376510592800058,-103.96323265123782,103.96336775857397
55974626,5.32,0,9.217811584472656,-0.0640222430229187,-3.3730287551879883,0.000835039303638041,0.0006140918703749776,0.0007969510625116527,999,999,1.502055048942566,70.11309051513672,359.7557373046875,9.815776700687776,-0.03669069775457068,0.024572937657185698,-9.815677368434548,-0.03669069775457068,0.024572937657185698,-19.622327368434547,19.622377057598865,-0.11360019401951847,0.12423783899076064,-104.3556260573153,104.35576184312461
55994626,5.34,0,9.217414855957031,-0.0639709010720253,-3.357384443283081,0.0008038365631364286,0.0008881384856067598,0.0008412849274463952,999,999,1.502131700515747,70.11312103271484,359.7552795410156,9.81003869528559,-0.02212470782445708,0.024156749413748416,-9.809984003644553,-0.02212470782445708,0.024156749413748416,-19.616634003644553,19.616661354169885,-0.11418834807530874,0.12472513586146998,-104.74801567103609,104.74815216679468
56014626,5.36,0,9.216451644897461,-0.06343387067317963,-3.3555169105529785,0.000770928745623678,0.0008378512575291097,0.00080194475594908,999,999,1.5021495819091797,70.11312103271484,359.7547607421875,9.808491143682025,-0.020681253106832997,0.024639714264284712,-9.80843839181037,-0.020681253106832997,0.024639714264284712,-19.615088391810367,19.615114770204197,-0.11461640768462165,0.12521310049825032,-105.14033289499065,105.14046992719264
56034626,5.38,0,9.215456008911133,-0.06420834362506866,-3.3562867641448975,0.0007599672535434365,0.0008065642323344946,0.0008250156533904374,999,999,1.5021904706954956,70.11304473876953,359.75433349609375,9.807824070951803,-0.021752673284539892,0.023892826368508507,-9.80777084565064,-0.021752673284539892,0.023892826368508507,-19.614420845650642,19.614447459876136,-0.11504074694853537,0.12569842590457825,-105.53262798736525,105.53276554884441
56054626,5.4,0,9.216901779174805,-0.06489221751689911,-3.356051445007324,0.0007971302838996053,0.0008072383934631944,0.0007995425839908421,999,999,1.5021681785583496,70.113037109375,359.7537536621094,9.80910651937197,-0.021057958163778867,0.02319894164261957,-9.809056482653686,-0.021057958163778867,0.02319894164261957,-19.615706482653685,19.615731504129972,-0.11546885326301858,0.12616934358468954,-105.9249292606483,105.92506733834387
56074626,5.42,0,9.215970993041992,-0.06528441607952118,-3.3559048175811768,0.0007948712445795536,0.0008258534362539649,0.0008048703894019127,999,999,1.5021694898605347,70.11297607421875,359.75323486328125,9.808184365326683,-0.021237456179086678,0.02280407186338003,-9.808134862908457,-0.021237456179086678,0.02280407186338003,-19.614784862908458,19.614809616038112,-0.11589180740644722,0.12662937371974953,-106.31723417410392,106.31737274942681
